"Time (s)","Acceleration x (m/s^2)","Acceleration y (m/s^2)","Acceleration z (m/s^2)","Absolute acceleration (m/s^2)"
1.348416670E-3,-4.085005188E-1,9.865833893E0,4.947212219E-1,9.886672856E0
1.140541665E-2,-5.031037903E-1,9.878407745E0,5.041516113E-1,9.904050780E0
2.146341663E-2,-5.349874878E-1,9.843979340E0,5.180726624E-1,9.872109204E0
3.152041661E-2,-4.882846069E-1,9.855804749E0,5.780978394E-1,9.884811896E0
4.157741659E-2,-3.800596619E-1,9.829459534E0,7.420069885E-1,9.864750095E0
5.163541657E-2,-2.733316040E-1,9.789941711E0,9.306147766E-1,9.837871352E0
6.169241667E-2,-1.528321838E-1,9.767189026E0,1.115031281E0,9.831817426E0
7.174941665E-2,-9.400451660E-2,9.749226379E0,1.205443268E0,9.823917005E0
8.180741663E-2,-4.385879517E-2,9.734706573E0,1.230291595E0,9.812239962E0
9.186441661E-2,-1.960922241E-2,9.724228363E0,1.161883850E0,9.793414923E0
1.019215416E-1,-6.451583862E-2,9.769733734E0,1.072070618E0,9.828590689E0
1.119785416E-1,-1.249900818E-1,9.840835876E0,1.023421783E0,9.894698854E0
1.220365416E-1,-5.912704468E-2,9.799970856E0,1.040935364E0,9.855276313E0
1.320935416E-1,-4.610412598E-2,9.778715057E0,1.007255402E0,9.830562405E0
1.421505417E-1,-1.240919495E-1,9.815239105E0,9.355545044E-1,9.860506059E0
1.522085416E-1,-1.815724182E-1,9.816885681E0,9.119036865E-1,9.860820521E0
1.622655416E-1,-2.249821472E-1,9.824669495E0,9.331594849E-1,9.871450464E0
1.723225416E-1,-1.854643250E-1,9.805808716E0,1.011895752E0,9.859625480E0
1.823795416E-1,-1.269360352E-1,9.831405487E0,1.109043732E0,9.894575514E0
1.924375416E-1,-1.293310547E-1,9.845027161E0,1.182241516E0,9.916601299E0
2.024945416E-1,-5.658233643E-2,9.834848328E0,1.273701324E0,9.917144662E0
2.125515416E-1,-3.817062378E-2,9.799970856E0,1.245709534E0,9.878900648E0
2.226095416E-1,-9.145980835E-2,9.810000000E0,1.171314240E0,9.880103337E0
2.326665416E-1,-2.077679443E-1,9.815837860E0,1.124311981E0,9.882202075E0
2.427235416E-1,-2.612068176E-1,9.793534241E0,1.046623535E0,9.852764219E0
2.527805417E-1,-2.817141724E-1,9.798324280E0,1.010099487E0,9.854279402E0
2.628385416E-1,-2.703378296E-1,9.790241089E0,9.907896423E-1,9.843960953E0
2.728955416E-1,-2.351609802E-1,9.757758636E0,9.211843872E-1,9.803965268E0
2.829525416E-1,-1.971400452E-1,9.774224396E0,9.738748169E-1,9.824599681E0
2.930105416E-1,-1.660047913E-1,9.776769104E0,1.060843964E0,9.835555989E0
3.030675416E-1,-1.375639343E-1,9.770781555E0,1.072968750E0,9.830481065E0
3.131245417E-1,-1.377136230E-1,9.759554901E0,1.046024780E0,9.816417104E0
3.231815416E-1,-1.613644409E-1,9.764494629E0,1.070124664E0,9.824284230E0
3.332395416E-1,-1.188528442E-1,9.750573578E0,1.122815094E0,9.815728441E0
3.432965416E-1,-8.966354370E-2,9.717791748E0,1.145717468E0,9.785508905E0
3.533535416E-1,-8.547225952E-2,9.726024628E0,1.117725677E0,9.790412211E0
3.634115416E-1,-1.133143616E-1,9.717642059E0,1.070124664E0,9.777043220E0
3.734685417E-1,-1.670526123E-1,9.720635834E0,1.032552795E0,9.776749606E0
3.835255416E-1,-1.959425354E-1,9.749525757E0,1.025367737E0,9.805254966E0
3.935825416E-1,-1.098715210E-1,9.707762604E0,1.078507233E0,9.768106489E0
4.036405416E-1,-1.199006653E-1,9.695787506E0,1.072669373E0,9.755679941E0
4.136975416E-1,-1.273851013E-1,9.723330231E0,1.099763031E0,9.786156368E0
4.237545417E-1,-1.266366577E-1,9.718240814E0,1.096020813E0,9.780669864E0
4.338125417E-1,-1.266366577E-1,9.723479919E0,1.060095520E0,9.781917046E0
4.438695416E-1,-1.248403931E-1,9.734706573E0,1.016087036E0,9.788387511E0
4.539265416E-1,-1.140628052E-1,9.755662994E0,1.038390656E0,9.811433429E0
4.639835416E-1,-8.801696777E-2,9.792037354E0,1.088985443E0,9.852798172E0
4.740415416E-1,-7.065307617E-2,9.776469727E0,1.159339142E0,9.845223178E0
4.840985417E-1,-4.745132446E-2,9.783954163E0,1.175505524E0,9.854431689E0
4.941555416E-1,-5.598358154E-2,9.801767120E0,1.167572021E0,9.871220657E0
5.042135416E-1,-1.041833496E-1,9.810000000E0,1.133742371E0,9.875845581E0
5.142705416E-1,-1.243913269E-1,9.809850311E0,1.129551086E0,9.875450470E0
5.243275416E-1,-1.210981750E-1,9.782756653E0,1.077758789E0,9.842690511E0
5.343855416E-1,-1.404080200E-1,9.770631866E0,9.837542725E-1,9.821035279E0
5.444425417E-1,-1.329235840E-1,9.775421906E0,9.509724426E-1,9.822468666E0
5.544995416E-1,-1.166075134E-1,9.779762878E0,9.616003418E-1,9.827615911E0
5.645565416E-1,-1.438508606E-1,9.781110077E0,1.013692017E0,9.834550265E0
5.746145416E-1,-1.550775146E-1,9.795779572E0,1.074465637E0,9.855750750E0
5.846715416E-1,-1.610650635E-1,9.787696381E0,1.120569763E0,9.852949761E0
5.947285416E-1,-1.678010559E-1,9.769584045E0,1.119671631E0,9.834967930E0
6.047865417E-1,-2.056723022E-1,9.759704590E0,1.132095795E0,9.827297475E0
6.148435416E-1,-2.299218750E-1,9.743987274E0,1.138532410E0,9.812971421E0
6.249005416E-1,-2.025288391E-1,9.749825134E0,1.156944122E0,9.820317092E0
6.349575416E-1,-1.695973206E-1,9.770931244E0,1.188229065E0,9.844376513E0
6.450155416E-1,-1.558259583E-1,9.795779572E0,1.241069183E0,9.875314266E0
6.550725416E-1,-1.552272034E-1,9.823771362E0,1.274000702E0,9.907252750E0
6.651295417E-1,-1.595681763E-1,9.831255798E0,1.230590973E0,9.909258636E0
6.751875416E-1,-1.886077881E-1,9.848470001E0,1.176253967E0,9.920257439E0
6.852445416E-1,-1.751358032E-1,9.812993774E0,1.057251434E0,9.871337293E0
6.953015416E-1,-2.176473999E-1,9.776769104E0,9.204359436E-1,9.822412475E0
7.053585416E-1,-2.260299683E-1,9.763746185E0,9.171427917E-1,9.809331273E0
7.154165416E-1,-1.508862305E-1,9.720037079E0,9.113049316E-1,9.763829379E0
7.254735416E-1,-1.589694214E-1,9.757908325E0,9.446855164E-1,9.804819064E0
7.355305416E-1,-1.739382935E-1,9.749825134E0,9.535171509E-1,9.797884447E0
7.455885416E-1,-1.778302002E-1,9.710307312E0,9.285191345E-1,9.756220552E0
7.556455416E-1,-1.727407837E-1,9.716893616E0,8.631051636E-1,9.756680349E0
7.657025416E-1,-1.651066589E-1,9.714199219E0,8.241860962E-1,9.750497905E0
7.757595417E-1,-1.387614441E-1,9.724677429E0,8.550219727E-1,9.763179217E0
7.858175416E-1,-1.106199646E-1,9.747280426E0,8.943901062E-1,9.788853158E0
7.958745416E-1,-7.454498291E-2,9.752070465E0,9.318122864E-1,9.796770358E0
8.059315416E-1,-1.002914429E-1,9.726024628E0,9.481283569E-1,9.772643492E0
8.159895416E-1,-1.151106262E-1,9.746981049E0,9.511221313E-1,9.793953406E0
8.260465416E-1,-1.898052979E-1,9.762848053E0,9.485774231E-1,9.810658861E0
8.361035417E-1,-2.556683350E-1,9.774224396E0,9.199868774E-1,9.820753774E0
8.461615416E-1,-2.462379456E-1,9.782606964E0,9.668394470E-1,9.833351954E0
8.562185416E-1,-2.149530029E-1,9.794731750E0,1.020877075E0,9.850135271E0
8.662755416E-1,-2.730322266E-1,9.791438599E0,1.072968750E0,9.853835718E0
8.763325416E-1,-2.420466614E-1,9.821975098E0,1.123114471E0,9.888941679E0
8.863905416E-1,-1.992356873E-1,9.812993774E0,1.157842255E0,9.883073427E0
8.964475417E-1,-1.767823792E-1,9.776918793E0,1.105151825E0,9.840769972E0
9.065045416E-1,-1.830693054E-1,9.760602722E0,1.029109955E0,9.816412133E0
9.165625416E-1,-1.874102783E-1,9.795330505E0,9.544152832E-1,9.843501961E0
9.266195416E-1,-1.974394226E-1,9.769584045E0,9.093589783E-1,9.813800920E0
9.366765416E-1,-2.124082947E-1,9.778565369E0,9.419911194E-1,9.826128700E0
9.467335417E-1,-2.435435486E-1,9.817783813E0,9.987231445E-1,9.871455839E0
9.567915417E-1,-2.417472839E-1,9.793534241E0,1.015188904E0,9.848977774E0
9.668485416E-1,-1.974394226E-1,9.780361633E0,1.016536102E0,9.835029316E0
9.769055416E-1,-1.646575928E-1,9.794132996E0,1.076261902E0,9.854465634E0
9.869635416E-1,-1.372645569E-1,9.777966614E0,1.026714935E0,9.832681029E0
9.970205416E-1,-1.278341675E-1,9.796078949E0,9.472302246E-1,9.842598714E0
1.007077542E0,-1.272354126E-1,9.791887665E0,9.226812744E-1,9.836086296E0
1.017134542E0,-1.085243225E-1,9.760602722E0,9.253756714E-1,9.804971349E0
1.027192542E0,-8.442443848E-2,9.774224396E0,9.240284729E-1,9.818167784E0
1.037249542E0,-1.086740112E-1,9.775870972E0,9.059161377E-1,9.818357670E0
1.047306542E0,-1.314266968E-1,9.747879181E0,8.836125183E-1,9.788727833E0
1.057364542E0,-1.342707825E-1,9.736951904E0,8.833131409E-1,9.777857799E0
1.067421542E0,-1.927990723E-1,9.743089142E0,9.196875000E-1,9.788298249E0
1.077478542E0,-1.725910950E-1,9.731263733E0,9.955796814E-1,9.783581166E0
1.087536542E0,-1.130149841E-1,9.712852020E0,9.946815491E-1,9.764305308E0
1.097593542E0,-1.026864624E-1,9.732161865E0,9.232800293E-1,9.776398370E0
1.107650333E0,-1.541793823E-1,9.751771088E0,9.039701843E-1,9.794793143E0
1.117707333E0,-1.703457642E-1,9.737400970E0,9.023236084E-1,9.780602396E0
1.127765333E0,-1.631607056E-1,9.729018402E0,8.885522461E-1,9.770872304E0
1.137822333E0,-1.787283325E-1,9.748627625E0,9.066645813E-1,9.792329909E0
1.147879333E0,-1.538800049E-1,9.734107819E0,9.093589783E-1,9.777702585E0
1.157937333E0,-9.939331055E-2,9.730814667E0,9.153465271E-1,9.774277077E0
1.167994333E0,-6.316864014E-2,9.765991516E0,1.022823029E0,9.819610355E0
1.178051333E0,-3.068618774E-2,9.777667236E0,1.130748596E0,9.842881215E0
1.188108333E0,-4.894821167E-2,9.761650543E0,1.134490814E0,9.827476108E0
1.198166333E0,-8.367599487E-2,9.755962372E0,1.013692017E0,9.808841674E0
1.208223333E0,-1.040336609E-1,9.749376068E0,9.196875000E-1,9.793211006E0
1.218280333E0,-1.127156067E-1,9.750274200E0,9.098080444E-1,9.793278433E0
1.228338333E0,-1.080752563E-1,9.757159882E0,9.532177734E-1,9.804206920E0
1.238395333E0,-1.173559570E-1,9.735005951E0,1.002465363E0,9.787188058E0
1.248452333E0,-1.320254517E-1,9.753267975E0,1.023122406E0,9.807672831E0
1.258509333E0,-1.365161133E-1,9.751771088E0,1.007704468E0,9.804649116E0
1.268567333E0,-1.194515991E-1,9.778265991E0,1.041384430E0,9.834288790E0
1.278624333E0,-6.137237549E-2,9.759554901E0,1.035995636E0,9.814579227E0
1.288681333E0,-6.735992432E-3,9.729617157E0,1.016685791E0,9.782594001E0
1.298739333E0,-5.792953491E-2,9.740843811E0,1.006806335E0,9.792908300E0
1.308796333E0,-1.037342834E-1,9.773925018E0,1.002315674E0,9.825731921E0
1.318853333E0,-1.303788757E-1,9.741592255E0,9.954299927E-1,9.793186365E0
1.328911333E0,-5.403762817E-2,9.771080933E0,1.027014313E0,9.825054761E0
1.338968333E0,-5.463638306E-2,9.763297119E0,1.038839722E0,9.818561185E0
1.349025333E0,-5.179229736E-2,9.725725250E0,9.825567627E-1,9.775368631E0
1.359082333E0,-3.622467041E-2,9.747280426E0,9.565109253E-1,9.794166686E0
1.369140333E0,-6.122268677E-2,9.747430115E0,9.592053223E-1,9.794703513E0
1.379197333E0,-8.666976929E-2,9.749376068E0,9.096583557E-1,9.792105172E0
1.389254333E0,-1.484912109E-1,9.770033112E0,8.903485107E-1,9.811641917E0
1.399312333E0,-1.667532349E-1,9.762848053E0,8.716374207E-1,9.803099537E0
1.409369333E0,-1.592687988E-1,9.774823151E0,8.948391724E-1,9.816988913E0
1.419426333E0,-1.416055298E-1,9.796528015E0,9.756710815E-1,9.846011748E0
1.429483333E0,-7.843688965E-2,9.794582062E0,1.056802368E0,9.851742047E0
1.439541333E0,-7.065307617E-2,9.807754669E0,1.071022797E0,9.866313057E0
1.449598333E0,-7.349716187E-2,9.839788055E0,1.045575714E0,9.895456502E0
1.459655333E0,-9.654922485E-2,9.829908600E0,1.037342834E0,9.884963581E0
1.469713333E0,-1.525328064E-1,9.842482452E0,1.030307465E0,9.897437070E0
1.479770333E0,-1.766326904E-1,9.868228912E0,1.039887543E0,9.924439887E0
1.489827333E0,-1.655557251E-1,9.850266266E0,1.056203613E0,9.908113861E0
1.499884333E0,-1.582209778E-1,9.823322296E0,1.042282562E0,9.879729133E0
1.509942333E0,-1.694476318E-1,9.799372101E0,1.015188904E0,9.853274308E0
1.519999333E0,-1.520837402E-1,9.784103851E0,9.837542725E-1,9.834611843E0
1.530056333E0,-1.399589539E-1,9.768236847E0,9.824070740E-1,9.818511255E0
1.540114333E0,-1.302291870E-1,9.768087158E0,1.025966492E0,9.822682608E0
1.550171333E0,-1.285826111E-1,9.778265991E0,1.037043457E0,9.833945211E0
1.560228333E0,-1.077758789E-1,9.780361633E0,1.045426025E0,9.836666351E0
1.570286333E0,-1.651066589E-1,9.775122528E0,9.936337280E-1,9.826880921E0
1.580343333E0,-1.772314453E-1,9.745783539E0,9.382489014E-1,9.792447027E0
1.590400333E0,-1.604663086E-1,9.739346924E0,9.273216248E-1,9.784710181E0
1.600457333E0,-1.547781372E-1,9.718240814E0,9.148974609E-1,9.762438126E0
1.610515333E0,-1.588197327E-1,9.709858246E0,9.267228699E-1,9.755274785E0
1.620572333E0,-1.333726501E-1,9.694889374E0,9.370513916E-1,9.740982165E0
1.630629333E0,-1.824705505E-1,9.691745911E0,9.502239990E-1,9.739926075E0
1.640687333E0,-2.245330811E-1,9.673932953E0,9.145980835E-1,9.719664785E0
1.650744333E0,-2.267784119E-1,9.678124237E0,8.891510010E-1,9.721528002E0
1.660801333E0,-2.332150269E-1,9.700427856E0,9.148974609E-1,9.746267348E0
1.670858333E0,-1.920506287E-1,9.684710541E0,9.562115479E-1,9.733696226E0
1.680916333E0,-1.460961914E-1,9.678273926E0,9.636959839E-1,9.727231889E0
1.690973333E0,-1.468446350E-1,9.688752136E0,9.497749329E-1,9.736300824E0
1.701030333E0,-1.907034302E-1,9.715696106E0,9.235794067E-1,9.761358386E0
1.711088333E0,-1.722917175E-1,9.731413422E0,9.056167603E-1,9.774979966E0
1.721145333E0,-1.540296936E-1,9.725575562E0,9.014254761E-1,9.768475472E0
1.731202333E0,-1.725910950E-1,9.735604706E0,9.394464111E-1,9.782348707E0
1.741259333E0,-1.892065430E-1,9.734407196E0,9.698332214E-1,9.784429419E0
1.751317333E0,-1.990859985E-1,9.736502838E0,1.007405090E0,9.790504980E0
1.761374333E0,-1.896556091E-1,9.734706573E0,1.022673340E0,9.790114508E0
1.771431333E0,-1.908531189E-1,9.741741943E0,1.003812561E0,9.795182523E0
1.781489333E0,-2.224374390E-1,9.764045563E0,9.467811584E-1,9.812362546E0
1.791546333E0,-2.260299683E-1,9.770033112E0,9.240284729E-1,9.816234775E0
1.801603333E0,-2.445913696E-1,9.797725525E0,9.069639587E-1,9.842653810E0
1.811661333E0,-2.752775574E-1,9.793085175E0,8.454418945E-1,9.833364987E0
1.821718333E0,-2.652484131E-1,9.783804474E0,8.538244629E-1,9.824571386E0
1.831775333E0,-2.528242493E-1,9.829309845E0,8.924441528E-1,9.872978714E0
1.841832333E0,-2.103126526E-1,9.830956421E0,9.716294861E-1,9.881093028E0
1.851890333E0,-1.818717957E-1,9.819580078E0,9.798623657E-1,9.870023329E0
1.861947333E0,-1.746867371E-1,9.814640350E0,9.681866455E-1,9.863826136E0
1.872004333E0,-1.612147522E-1,9.869725800E0,9.602531433E-1,9.917639016E0
1.882062333E0,-1.142124939E-1,9.865085449E0,9.936337280E-1,9.915657487E0
1.892119333E0,-7.289840698E-2,9.857750702E0,9.921368408E-1,9.907820073E0
1.902176333E0,-6.960525513E-2,9.855655060E0,1.003513184E0,9.906857234E0
1.912233333E0,-8.232879639E-2,9.839488678E0,9.951306152E-1,9.890025299E0
1.922291333E0,-1.029858398E-1,9.826016693E0,1.024170227E0,9.879784147E0
1.932348333E0,-1.049317932E-1,9.792187042E0,1.012195129E0,9.844921367E0
1.942405333E0,-1.124162292E-1,9.740993500E0,9.550140381E-1,9.788342229E0
1.952463333E0,-9.355545044E-2,9.723030853E0,8.922944641E-1,9.764336691E0
1.962520333E0,-1.068777466E-1,9.713001709E0,8.801696777E-1,9.753385244E0
1.972577333E0,-1.173559570E-1,9.702673187E0,8.885522461E-1,9.743980937E0
1.982634333E0,-1.127156067E-1,9.694739685E0,8.623567200E-1,9.733670504E0
1.992692333E0,-1.492396545E-1,9.697134705E0,8.363108826E-1,9.734275004E0
2.002749333E0,-1.797761536E-1,9.706265717E0,8.053253174E-1,9.741276225E0
2.012806333E0,-1.390608215E-1,9.708361359E0,7.929011536E-1,9.741679035E0
2.022864333E0,-1.276844788E-1,9.695338440E0,8.187973022E-1,9.730689586E0
2.032921333E0,-1.221459961E-1,9.703122253E0,8.491841125E-1,9.740976068E0
2.042978333E0,-1.058299255E-1,9.701475677E0,8.647517395E-1,9.740514661E0
2.053035333E0,-9.939331055E-2,9.687854004E0,8.460406494E-1,9.725234137E0
2.063093333E0,-1.080752563E-1,9.729916534E0,8.466394043E-1,9.767279780E0
2.073150333E0,-1.305285645E-1,9.746681671E0,8.801696777E-1,9.787213085E0
2.083207333E0,-1.528321838E-1,9.744586029E0,8.882528687E-1,9.786179424E0
2.093265333E0,-1.225950623E-1,9.778864746E0,8.863069153E-1,9.819713093E0
2.103322333E0,-1.522334290E-1,9.744735718E0,9.077124023E-1,9.788104568E0
2.113379917E0,-1.666035461E-1,9.716294861E0,8.870553589E-1,9.758125321E0
2.123436917E0,-1.666035461E-1,9.730964355E0,9.047186279E-1,9.774351120E0
2.133494917E0,-1.800755310E-1,9.708061981E0,8.544232178E-1,9.747252621E0
2.143551917E0,-1.703457642E-1,9.699529724E0,7.722441101E-1,9.731713904E0
2.153608917E0,-1.228944397E-1,9.694889374E0,7.280859375E-1,9.722967250E0
2.163666917E0,-8.202941895E-2,9.680369568E0,6.915618896E-1,9.705387249E0
2.173723917E0,-1.007405090E-1,9.703421631E0,6.885681152E-1,9.728343438E0
2.183780917E0,-1.004411316E-1,9.720785522E0,6.688092041E-1,9.744283727E0
2.193838917E0,-9.879455566E-2,9.745783539E0,7.235952759E-1,9.773108373E0
2.203895917E0,-1.543290710E-1,9.749974823E0,8.119116211E-1,9.784938783E0
2.213952917E0,-1.823208618E-1,9.747430115E0,8.485853577E-1,9.785996722E0
2.224009917E0,-1.951940918E-1,9.735904083E0,8.505313110E-1,9.774933890E0
2.234067917E0,-2.010319519E-1,9.700128479E0,8.005352783E-1,9.735181718E0
2.244124917E0,-1.827699280E-1,9.674232330E0,7.093748474E-1,9.701927061E0
2.254181917E0,-1.950444031E-1,9.686057739E0,6.595285034E-1,9.710444619E0
2.264239917E0,-2.332150269E-1,9.660311279E0,5.761518860E-1,9.680286889E0
2.274296917E0,-2.380050659E-1,9.667795715E0,5.108876038E-1,9.684210166E0
2.284353917E0,-2.519261169E-1,9.640402679E0,4.730163574E-1,9.655287415E0
2.294410917E0,-2.877017212E-1,9.647737427E0,4.361929321E-1,9.661877354E0
2.304468917E0,-3.043171692E-1,9.645342407E0,4.257147217E-1,9.659527531E0
2.314525917E0,-3.158432007E-1,9.652228088E0,4.816983032E-1,9.669400046E0
2.324582917E0,-3.418890381E-1,9.664203186E0,5.909710693E-1,9.688289743E0
2.334640917E0,-3.362008667E-1,9.657317505E0,6.213578796E-1,9.683124394E0
2.344697917E0,-3.495231628E-1,9.676777039E0,6.364764404E-1,9.703982819E0
2.354754917E0,-3.857478333E-1,9.693542175E0,6.165678406E-1,9.720787890E0
2.364811917E0,-3.978726196E-1,9.679022369E0,5.837860107E-1,9.704771134E0
2.374869917E0,-3.698808289E-1,9.675280151E0,5.063969421E-1,9.695581246E0
2.384926917E0,-3.537144470E-1,9.674232330E0,4.159849548E-1,9.689629950E0
2.394983917E0,-3.161425781E-1,9.704619141E0,3.658392334E-1,9.716656685E0
2.405041917E0,-3.454815674E-1,9.723180542E0,3.083587646E-1,9.734201688E0
2.415098917E0,-3.388952637E-1,9.795629883E0,3.332070923E-1,9.807152582E0
2.425155917E0,-2.622546387E-1,9.844578094E0,3.917353821E-1,9.855858763E0
2.435212917E0,-1.064286804E-1,9.818532257E0,4.381388855E-1,9.828879307E0
2.445270917E0,4.730163574E-2,9.813742218E0,3.766168213E-1,9.821080083E0
2.455327917E0,1.481918335E-1,9.780511322E0,3.252735901E-1,9.787040689E0
2.465384917E0,1.499880981E-1,9.754914551E0,3.538641357E-1,9.762482991E0
2.475442917E0,9.595046997E-2,9.729317780E0,3.227288818E-1,9.735141749E0
2.485499917E0,4.445755005E-2,9.737850037E0,2.245330811E-1,9.740539765E0
2.495556917E0,1.901046753E-2,9.725725250E0,8.696914673E-2,9.726132668E0
2.505614917E0,-2.514770508E-2,9.752070465E0,-1.511856079E-2,9.752114608E0
2.515671917E0,-6.316864014E-2,9.785301361E0,4.355941772E-2,9.785602201E0
2.525728917E0,-4.730163574E-2,9.775870972E0,1.588197327E-1,9.777275408E0
2.535785917E0,2.544708252E-2,9.789492645E0,2.137554932E-1,9.791859130E0
2.545843917E0,2.963836670E-2,9.791288910E0,2.082170105E-1,9.793547431E0
2.555900917E0,2.230361938E-2,9.746232605E0,1.440005493E-1,9.747321868E0
2.565957917E0,4.176315308E-2,9.702822876E0,3.308120728E-2,9.702969148E0
2.576015917E0,3.682342529E-2,9.681267700E0,-2.514770508E-2,9.681370391E0
2.586072917E0,1.199006653E-1,9.641899567E0,-1.098715210E-1,9.643270979E0
2.596129917E0,2.439926147E-1,9.650880890E0,-2.065704346E-1,9.656174485E0
2.606186917E0,4.225712585E-1,9.683662720E0,-2.161505127E-1,9.695288092E0
2.616244917E0,6.520440674E-1,9.671987000E0,-3.180885315E-1,9.699158432E0
2.626301917E0,7.949967957E-1,9.718390503E0,-5.207670593E-1,9.764749470E0
2.636358917E0,8.415499878E-1,9.767787781E0,-6.514453125E-1,9.825592374E0
2.646416917E0,8.411009216E-1,9.816137238E0,-8.012837219E-1,9.884637405E0
2.656473917E0,8.228388977E-1,9.910890198E0,-8.842112732E-1,9.984219446E0
2.666530917E0,7.955955505E-1,9.951605530E0,-8.662486267E-1,1.002086880E1
2.676587917E0,6.411167908E-1,9.954449615E0,-7.408094788E-1,1.000254450E1
2.686645917E0,4.387376404E-1,9.962083740E0,-5.083428955E-1,9.984689062E0
2.696702917E0,2.628533936E-1,9.986632690E0,-1.639091492E-1,9.991435863E0
2.706759917E0,1.468446350E-1,9.907447357E0,2.477348328E-1,9.911632006E0
2.716817917E0,9.490264893E-2,9.812395020E0,4.581971741E-1,9.823545550E0
2.726874917E0,5.553451538E-2,9.697883148E0,4.944218445E-1,9.710637188E0
2.736931917E0,6.152206421E-2,9.539362793E0,3.469784546E-1,9.545869343E0
2.746989917E0,1.216969299E-1,9.396410065E0,1.685494995E-1,9.398709549E0
2.757046917E0,1.877096558E-1,9.238338776E0,-4.655319214E-2,9.240362842E0
2.767103917E0,1.850152588E-1,9.112450562E0,-2.583627319E-1,9.117989756E0
2.777160917E0,1.553768921E-1,8.995543671E0,-3.951782227E-1,9.005560157E0
2.787218917E0,1.636097717E-1,8.888366547E0,-4.812492371E-1,8.902888793E0
2.797275917E0,1.932481384E-1,8.785530396E0,-5.144801331E-1,8.802702936E0
2.807332917E0,2.266287231E-1,8.695268097E0,-5.929170227E-1,8.718405729E0
2.817390917E0,2.276765442E-1,8.651708679E0,-5.539979553E-1,8.672416815E0
2.827447917E0,2.583627319E-1,8.639883270E0,-3.525169373E-1,8.650930725E0
2.837504917E0,3.442840576E-1,8.647218018E0,-1.622625732E-1,8.655590107E0
2.847561917E0,3.782633972E-1,8.721912689E0,-1.227447510E-2,8.730119977E0
2.857619917E0,4.317022705E-1,8.775950317E0,1.510359192E-1,8.787859960E0
2.867676917E0,5.959107971E-1,8.829239502E0,1.884580994E-1,8.851333025E0
2.877733917E0,7.578739929E-1,8.942853241E0,2.095642090E-3,8.974909552E0
2.887791917E0,9.641450500E-1,9.131760406E0,-1.905537415E-1,9.184494245E0
2.897848917E0,1.169817352E0,9.358838196E0,-2.402503967E-1,9.434725500E0
2.907905917E0,1.332978058E0,9.549990692E0,-1.956431580E-1,9.644554369E0
2.917962917E0,1.417851562E0,9.770182800E0,-7.484436035E-2,9.872809969E0
2.928020917E0,1.403631134E0,1.000878662E1,-1.437011719E-2,1.010674015E1
2.938077917E0,1.310225372E0,1.024903702E1,-2.903961182E-2,1.033248729E1
2.948134917E0,1.110839996E0,1.050395691E1,8.442443848E-2,1.056286911E1
2.958192917E0,9.020242310E-1,1.076710968E1,3.454815674E-1,1.081034949E1
2.968249917E0,7.625143433E-1,1.103295685E1,7.500901794E-1,1.108468314E1
2.978306917E0,6.836283875E-1,1.122500748E1,1.150058441E0,1.130445819E1
2.988363917E0,5.399272156E-1,1.137454651E1,1.353485413E0,1.146750855E1
2.998421917E0,3.324586487E-1,1.148396896E1,1.505868530E0,1.158704932E1
3.008478917E0,1.413061523E-1,1.151405640E1,1.528321838E0,1.161590417E1
3.018535917E0,-1.422042847E-1,1.153471344E1,1.346599731E0,1.161392126E1
3.028593917E0,-7.081773376E-1,1.160626465E1,9.538165283E-1,1.166690448E1
3.038650917E0,-1.225202179E0,1.165506317E1,3.742218018E-1,1.172525735E1
3.048707917E0,-1.695673828E0,1.168619843E1,-5.867797852E-2,1.180872501E1
3.058764917E0,-2.081421661E0,1.176927567E1,-2.486329651E-1,1.195449640E1
3.068822917E0,-2.440973969E0,1.187750061E1,-1.691482544E-2,1.212574372E1
3.078879917E0,-2.541714478E0,1.194860275E1,6.891668701E-1,1.223537377E1
3.088936917E0,-2.219584351E0,1.196476913E1,1.622925110E0,1.227665024E1
3.098994917E0,-1.739532623E0,1.199530563E1,2.593806152E0,1.239520719E1
3.109051833E0,-1.128952332E0,1.193138855E1,3.452121277E0,1.247195684E1
3.119108833E0,-5.334906006E-1,1.183483932E1,4.131109314E0,1.254647752E1
3.129166833E0,-1.856140137E-2,1.171254364E1,4.561165009E0,1.256933766E1
3.139223833E0,2.929408264E-1,1.149190247E1,4.672234039E0,1.240884392E1
3.149280833E0,4.709207153E-1,1.137170242E1,4.472549286E0,1.222869901E1
3.159337833E0,4.225712585E-1,1.118399277E1,3.971241760E0,1.187564827E1
3.169395833E0,1.956431580E-1,1.106409210E1,3.219505005E0,1.152465283E1
3.179452833E0,-7.634124756E-2,1.103385498E1,2.535577240E0,1.132170198E1
3.189509833E0,-1.781295776E-1,1.089539291E1,1.989812164E0,1.107703342E1
3.199567833E0,-1.917512512E-1,1.073492661E1,1.641636200E0,1.086141736E1
3.209624833E0,-1.770817566E-1,1.060514648E1,1.505569153E0,1.071294676E1
3.219681833E0,-1.155596924E-1,1.042462189E1,1.462907867E0,1.052740210E1
3.229738833E0,-2.020797729E-2,1.024245071E1,1.492695923E0,1.035066887E1
3.239796833E0,-1.182540894E-2,1.007270370E1,1.541344757E0,1.018995797E1
3.249853833E0,-2.469863892E-2,9.927206268E0,1.551224213E0,1.004770277E1
3.259910833E0,-1.004411316E-1,9.707912292E0,1.476679230E0,9.820093230E0
3.269968833E0,-1.416055298E-1,9.573491821E0,1.371298370E0,9.672241571E0
3.280025833E0,-2.026785278E-1,9.424252167E0,1.335822144E0,9.520610710E0
3.290082833E0,-2.267784119E-1,9.215137024E0,1.384171600E0,9.321271900E0
3.300139833E0,-2.276765442E-1,8.973090363E0,1.510957947E0,9.102262421E0
3.310197833E0,-9.999206543E-2,8.723409576E0,1.590143280E0,8.867718348E0
3.320254833E0,-2.903961182E-2,8.427624664E0,1.573527832E0,8.573312698E0
3.330311833E0,-7.424560547E-2,8.184679871E0,1.437610474E0,8.310308109E0
3.340369833E0,-1.234931946E-1,7.986641693E0,1.205143890E0,8.077999003E0
3.350426833E0,-1.454974365E-1,7.755372620E0,8.875044250E-1,7.807345136E0
3.360483833E0,-2.052232361E-1,7.538473663E0,5.701643372E-1,7.562789771E0
3.370540833E0,-2.474354553E-1,7.387138367E0,3.129991150E-1,7.397905514E0
3.380598833E0,-3.230282593E-1,7.277266846E0,1.046324158E-1,7.285184139E0
3.390655833E0,-3.888912964E-1,7.224127350E0,-3.143463135E-2,7.234655523E0
3.400712833E0,-3.412902832E-1,7.222031708E0,-4.565505981E-2,7.230235503E0
3.410770833E0,-2.209405518E-1,7.226522369E0,-1.017883301E-2,7.229906216E0
3.420827833E0,-1.097218323E-1,7.269782410E0,5.673202515E-2,7.270831705E0
3.430884833E0,2.409988403E-2,7.352709961E0,1.642085266E-1,7.354582858E0
3.440941833E0,1.210981750E-1,7.426805878E0,1.814227295E-1,7.430008380E0
3.450999833E0,1.463955688E-1,7.503745880E0,1.715432739E-1,7.507134006E0
3.461056833E0,1.549278259E-1,7.612719269E0,1.466949463E-1,7.615708549E0
3.471113833E0,1.880090332E-1,7.796537018E0,1.122665405E-1,7.799611570E0
3.481171833E0,1.492396545E-1,8.027506714E0,6.376739502E-2,8.029147078E0
3.491228833E0,5.658233643E-2,8.300538940E0,6.301895142E-2,8.300971006E0
3.501285833E0,-7.469467163E-2,8.576415253E0,6.646179199E-2,8.576998021E0
3.511343833E0,-1.570234680E-1,8.866961060E0,1.700463867E-1,8.869981430E0
3.521400833E0,-1.809736633E-1,9.193731537E0,3.667373657E-1,9.202822792E0
3.531457833E0,-1.125659180E-1,9.538015594E0,4.737648010E-1,9.550437982E0
3.541514833E0,-9.639953613E-2,9.876312103E0,4.727169800E-1,9.888088540E0
3.551572833E0,-6.810836792E-2,1.018511993E1,4.062551880E-1,1.019344643E1
3.561629833E0,-9.041198730E-2,1.051712952E1,2.363584900E-1,1.052017362E1
3.571686833E0,-1.170565796E-1,1.083252365E1,8.337661743E-2,1.083347694E1
3.581744833E0,-1.472937012E-1,1.113070358E1,3.966751099E-2,1.113174879E1
3.591801833E0,-1.890568542E-1,1.148995651E1,2.878514099E-1,1.149511642E1
3.601858833E0,-1.444496155E-1,1.184726349E1,7.812254333E-1,1.187387178E1
3.611915833E0,-5.628295898E-2,1.223660385E1,1.202748871E0,1.229570032E1
3.621973833E0,4.251159668E-2,1.259331207E1,1.303639069E0,1.266067893E1
3.632030833E0,1.586700439E-1,1.277832733E1,1.131197662E0,1.282928033E1
3.642087833E0,3.864962769E-1,1.286694305E1,9.913883972E-1,1.291086573E1
3.652145833E0,7.030879211E-1,1.295510971E1,1.079105988E0,1.301897346E1
3.662202833E0,1.072369995E0,1.303294785E1,1.430425415E0,1.315499235E1
3.672259833E0,1.366957397E0,1.307575882E1,2.009870453E0,1.329976017E1
3.682316833E0,1.346150665E0,1.298804123E1,2.704426117E0,1.333473874E1
3.692374833E0,1.224902802E0,1.293370422E1,3.417842560E0,1.343364208E1
3.702431833E0,9.226812744E-1,1.269539978E1,3.905229034E0,1.331447821E1
3.712488833E0,6.390211487E-1,1.243613892E1,4.139342194E0,1.312250178E1
3.722546833E0,3.531156921E-1,1.212343918E1,4.155209198E0,1.282061745E1
3.732603833E0,2.076182556E-1,1.184965851E1,4.008364563E0,1.251097512E1
3.742660833E0,1.134640503E-1,1.150178192E1,3.630849609E0,1.206179631E1
3.752717833E0,1.447489929E-1,1.102786743E1,3.077001343E0,1.145001090E1
3.762775833E0,1.757345581E-1,1.064735870E1,2.426454163E0,1.092175855E1
3.772832833E0,5.239105225E-2,1.027178970E1,1.714085541E0,1.041395687E1
3.782889833E0,-1.222956848E-1,1.000519409E1,1.065484314E0,1.006251071E1
3.792947833E0,-2.972817993E-1,9.768386536E0,6.656657410E-1,9.795553219E0
3.803004833E0,-3.363505554E-1,9.524693298E0,6.297404480E-1,9.551412836E0
3.813061833E0,-2.430944824E-1,9.279503174E0,8.580157471E-1,9.322256438E0
3.823118833E0,-1.164578247E-1,9.069340210E0,1.199006653E0,9.148995094E0
3.833176833E0,-4.745132446E-2,8.843459930E0,1.532213745E0,8.975339221E0
3.843233833E0,-3.757186890E-2,8.617579651E0,1.737287292E0,8.791032807E0
3.853290833E0,-3.293151855E-3,8.354277191E0,1.898352356E0,8.567245759E0
3.863348833E0,1.437011719E-2,8.024962006E0,1.902693329E0,8.247451946E0
3.873405833E0,-4.340972900E-2,7.730075226E0,1.731748810E0,7.921799123E0
3.883462833E0,-1.332229614E-1,7.448510742E0,1.507964172E0,7.600790523E0
3.893519833E0,-2.171983337E-1,7.200775909E0,1.305734711E0,7.321426907E0
3.903577833E0,-3.167413330E-1,6.987768860E0,1.034648438E0,7.071049151E0
3.913634833E0,-4.087998962E-1,6.792275391E0,7.240443420E-1,6.842979070E0
3.923691833E0,-4.487667847E-1,6.693331146E0,5.017565918E-1,6.727096932E0
3.933749833E0,-5.248086548E-1,6.609505463E0,2.746788025E-1,6.635995406E0
3.943806833E0,-6.304888916E-1,6.546187134E0,3.353027344E-2,6.576564948E0
3.953863833E0,-6.884184265E-1,6.508465576E0,-1.812730408E-1,6.547282184E0
3.963921833E0,-6.505471802E-1,6.546636200E0,-3.385958862E-1,6.587587141E0
3.973978833E0,-6.971003723E-1,6.587201843E0,-4.942721558E-1,6.642400320E0
3.984035833E0,-7.381150818E-1,6.743177490E0,-5.900729370E-1,6.809070613E0
3.994092833E0,-7.273374939E-1,6.876250763E0,-6.538403320E-1,6.945455461E0
4.004150833E0,-7.030879211E-1,7.043602753E0,-6.945556641E-1,7.112600082E0
4.014207833E0,-6.102809143E-1,7.319778442E0,-6.030958557E-1,7.369893069E0
4.024264833E0,-4.144880676E-1,7.610923004E0,-4.514611816E-1,7.635559346E0
4.034322833E0,-3.492237854E-1,7.903714142E0,-3.803590393E-1,7.920563584E0
4.044379833E0,-4.951702881E-1,8.317004700E0,-2.577639771E-1,8.335718509E0
4.054436833E0,-7.572752380E-1,8.707542572E0,-2.604583740E-2,8.740448605E0
4.064493833E0,-8.695417786E-1,9.204060059E0,2.552192688E-1,9.248565367E0
4.074551833E0,-8.095166016E-1,9.647737427E0,4.564009094E-1,9.692391675E0
4.084608833E0,-6.309379578E-1,9.996362457E0,5.010081482E-1,1.002877631E1
4.094665833E0,-3.785627747E-1,1.032403107E1,5.414241028E-1,1.034514704E1
4.104723833E0,-1.079255676E-1,1.066487228E1,5.569917297E-1,1.067995265E1
4.114781042E0,8.801696777E-2,1.113055389E1,6.459068298E-1,1.114962657E1
4.124838042E0,2.384541321E-1,1.146271317E1,6.581813049E-1,1.148406967E1
4.134895042E0,2.568658447E-1,1.163545395E1,5.490582275E-1,1.165123314E1
4.144953042E0,1.832189941E-1,1.182600769E1,4.649331665E-1,1.183656158E1
4.155010042E0,4.490661621E-3,1.196057785E1,3.893403625E-1,1.196691391E1
4.165067042E0,-2.055226135E-1,1.210038712E1,4.171824646E-1,1.210932075E1
4.175125042E0,-3.728746033E-1,1.223854980E1,5.357359314E-1,1.225594345E1
4.185182042E0,-6.004014587E-1,1.239557327E1,5.575904846E-1,1.242262556E1
4.195239042E0,-8.449928284E-1,1.252550308E1,3.414399719E-1,1.255861543E1
4.205296042E0,-1.055904236E0,1.265857635E1,-4.505630493E-2,1.270261859E1
4.215354042E0,-1.271006927E0,1.277772858E1,-4.372407532E-1,1.284822889E1
4.225411042E0,-1.538949738E0,1.290780807E1,-6.379733276E-1,1.301487171E1
4.235468042E0,-1.681004333E0,1.294088928E1,-5.043013000E-1,1.305935338E1
4.245526042E0,-1.707798615E0,1.285945862E1,-3.293151855E-3,1.297236536E1
4.255583042E0,-1.622476044E0,1.277683044E1,8.452922058E-1,1.290714312E1
4.265640042E0,-1.436712341E0,1.261127472E1,1.839674377E0,1.282547442E1
4.275697042E0,-1.135388947E0,1.229228806E1,2.855611725E0,1.267059478E1
4.285755042E0,-8.265811157E-1,1.193587921E1,3.682192841E0,1.251826637E1
4.295812042E0,-6.486012268E-1,1.156824371E1,4.117038574E0,1.229613569E1
4.305869042E0,-5.551954651E-1,1.117171829E1,3.968547363E0,1.186865198E1
4.315927042E0,-7.212002563E-1,1.085722229E1,3.244203644E0,1.135448206E1
4.325984042E0,-1.007854156E0,1.060604462E1,2.246827698E0,1.088816730E1
4.336041042E0,-1.254990234E0,1.035426819E1,1.463057556E0,1.053216063E1
4.346098042E0,-1.520687714E0,1.003004242E1,1.052910461E0,1.019915989E1
4.356156042E0,-1.604962463E0,9.739945679E0,9.304650879E-1,9.915049753E0
4.366213042E0,-1.403032379E0,9.469158783E0,8.969348145E-1,9.614466183E0
4.376270042E0,-1.071022797E0,9.211544495E0,1.012793884E0,9.328740175E0
4.386328042E0,-7.114704895E-1,8.950337677E0,1.298849030E0,9.072030842E0
4.396385042E0,-4.120930481E-1,8.672216034E0,1.541494446E0,8.817786386E0
4.406442042E0,-2.067201233E-1,8.403674469E0,1.644629974E0,8.565587285E0
4.416499042E0,-9.624984741E-2,8.119565277E0,1.645977173E0,8.285278823E0
4.426557042E0,1.062789917E-2,7.844736786E0,1.626517639E0,8.011589594E0
4.436614042E0,7.424560547E-2,7.596103821E0,1.606010284E0,7.764378578E0
4.446671042E0,1.179547119E-1,7.321125641E0,1.553619232E0,7.485086952E0
4.456729042E0,1.904040527E-1,7.073839874E0,1.466201019E0,7.226701163E0
4.466786042E0,2.294728088E-1,6.969656525E0,1.452130280E0,7.123022686E0
4.476843042E0,2.653981018E-1,6.844217377E0,1.302591248E0,6.972122461E0
4.486900042E0,2.215393066E-1,6.742129669E0,1.129401398E0,6.839659323E0
4.496958042E0,5.688171387E-2,6.727460175E0,8.204438782E-1,6.777542629E0
4.507015042E0,-2.312690735E-1,6.769223328E0,5.255570984E-1,6.793532226E0
4.517072042E0,-4.272116089E-1,6.888076172E0,4.085005188E-1,6.913391048E0
4.527130042E0,-6.289920044E-1,6.994953918E0,3.300636292E-1,7.030928336E0
4.537187042E0,-8.158035278E-1,7.180118866E0,1.149609375E-1,7.227230337E0
4.547244042E0,-7.912545776E-1,7.354506226E0,-1.127156067E-1,7.397807137E0
4.557301042E0,-5.965095520E-1,7.539970551E0,-2.104623413E-1,7.566457159E0
4.567359042E0,-4.619393921E-1,7.636370087E0,-2.436932373E-1,7.654209463E0
4.577416042E0,-1.886077881E-1,7.825426941E0,-2.815644836E-1,7.832761854E0
4.587473042E0,1.077758789E-2,8.002059631E0,-4.288581848E-1,8.013550639E0
4.597531042E0,1.275347900E-1,8.227490845E0,-6.584806824E-1,8.254784524E0
4.607588042E0,1.612147522E-1,8.507408752E0,-8.298742676E-1,8.549309047E0
4.617645042E0,1.477427673E-1,8.801247711E0,-7.087760925E-1,8.830976885E0
4.627702042E0,1.058299255E-1,9.102122040E0,-4.047583008E-1,9.111731717E0
4.637760042E0,1.386117554E-1,9.348659363E0,-7.783813477E-2,9.350010902E0
4.647817042E0,2.058219910E-1,9.693392487E0,1.901046753E-2,9.695596010E0
4.657874042E0,2.151026917E-1,1.009515701E1,-8.966354370E-2,1.009784649E1
4.667932042E0,2.781216431E-1,1.041893372E1,-1.637594604E-1,1.042393153E1
4.677989042E0,3.546125793E-1,1.069600754E1,-1.422042847E-2,1.070189374E1
4.688046042E0,4.345463562E-1,1.098745148E1,1.387614441E-1,1.099691662E1
4.698104042E0,5.281018066E-1,1.121213425E1,2.814147949E-1,1.122809156E1
4.708161042E0,6.165678406E-1,1.150477570E1,5.351371765E-1,1.153370676E1
4.718218042E0,6.804849243E-1,1.182481018E1,1.007704468E0,1.188716383E1
4.728275042E0,7.255412292E-1,1.201745956E1,1.548380127E0,1.213850178E1
4.738333042E0,7.894583130E-1,1.241922409E1,2.090402985E0,1.261864319E1
4.748390042E0,5.581892395E-1,1.261980698E1,2.199975128E0,1.282228505E1
4.758447042E0,2.438429260E-1,1.298789154E1,2.115550690E0,1.316131987E1
4.768505042E0,-3.592529297E-2,1.323966797E1,1.654210052E0,1.334265751E1
4.778562042E0,-1.890568542E-1,1.328487396E1,1.034648438E0,1.332644424E1
4.788619042E0,-9.175918579E-2,1.331077011E1,9.072633362E-1,1.334196940E1
4.798676042E0,3.442840576E-3,1.327439575E1,1.486558685E0,1.335737441E1
4.808734042E0,1.963916016E-1,1.308533890E1,2.506986694E0,1.332477565E1
4.818791042E0,5.858816528E-1,1.278416519E1,3.351829834E0,1.322924413E1
4.828848042E0,8.512797546E-1,1.238973541E1,3.528462524E0,1.291047128E1
4.838906042E0,1.147663422E0,1.205622894E1,3.317850494E0,1.255698688E1
4.848963042E0,1.189127197E0,1.169383255E1,2.768043823E0,1.207567016E1
4.859020042E0,1.034498749E0,1.143082947E1,1.941313019E0,1.164056469E1
4.869077042E0,8.180488586E-1,1.125284958E1,1.126407623E0,1.133863403E1
4.879135042E0,4.722679138E-1,1.111139374E1,4.926255798E-1,1.113233074E1
4.889192042E0,6.062393188E-2,1.095556778E1,2.761756897E-1,1.095921592E1
4.899249042E0,-3.791615295E-1,1.083177521E1,4.381388855E-1,1.084726156E1
4.909307042E0,-6.176156616E-1,1.061293030E1,8.581654358E-1,1.066546701E1
4.919364042E0,-6.221063232E-1,1.029005173E1,1.342258759E0,1.039585684E1
4.929421042E0,-6.104306030E-1,1.000249969E1,1.766326904E0,1.017558531E1
4.939478042E0,-4.897814941E-1,9.613159332E0,2.135010223E0,9.859563221E0
4.949536042E0,-2.260299683E-1,9.132658539E0,2.304906921E0,9.421737496E0
4.959593042E0,2.694396973E-3,8.761879578E0,2.245480499E0,9.045038622E0
4.969650042E0,1.056802368E-1,8.331225128E0,1.936522980E0,8.553981628E0
4.979708042E0,2.200424194E-2,7.906558228E0,1.485061798E0,8.044846533E0
4.989765042E0,-3.996688843E-2,7.615413666E0,1.131347351E0,7.699095368E0
4.999822042E0,-9.400451660E-2,7.328759766E0,8.879534912E-1,7.382954555E0
5.009879042E0,-3.233276367E-2,7.075037384E0,6.761439514E-1,7.107346202E0
5.019937042E0,1.014889526E-1,6.865173798E0,5.266049194E-1,6.886089167E0
5.029994042E0,1.173559570E-1,6.679410095E0,4.334985352E-1,6.694491214E0
5.040051042E0,6.436614990E-2,6.534212036E0,2.680924988E-1,6.540026263E0
5.050109042E0,3.427871704E-2,6.439459076E0,-1.571731567E-2,6.439569493E0
5.060166042E0,2.948867798E-2,6.390810242E0,-3.752696228E-1,6.401886630E0
5.070223042E0,4.490661621E-4,6.391109619E0,-6.803352356E-1,6.427218558E0
5.080280042E0,6.256988525E-2,6.455924835E0,-8.240364075E-1,6.508603266E0
5.090338042E0,7.409591675E-2,6.522686005E0,-9.340576172E-1,6.589642369E0
5.100395042E0,-3.891906738E-2,6.686595154E0,-1.119671631E0,6.779803390E0
5.110451542E0,-1.302291870E-1,6.892866211E0,-1.356030121E0,7.026192563E0
5.120509542E0,-2.267784119E-1,7.165449371E0,-1.560953979E0,7.337006915E0
5.130566542E0,-3.288661194E-1,7.513924713E0,-1.517244873E0,7.672629896E0
5.140623542E0,-2.965333557E-1,7.861202545E0,-1.310375061E0,7.975181521E0
5.150680542E0,-2.552192688E-1,8.175548859E0,-1.107995911E0,8.254234729E0
5.160738542E0,-2.203417969E-1,8.480614471E0,-9.448352051E-1,8.535929117E0
5.170795542E0,-2.351609802E-1,8.814120941E0,-8.315208435E-1,8.856379371E0
5.180852542E0,-3.050656128E-1,9.211095428E0,-7.988887024E-1,9.250706307E0
5.190910542E0,-3.320095825E-1,9.599986725E0,-7.976911926E-1,9.638790729E0
5.200967542E0,-2.668949890E-1,9.985734558E0,-8.330177307E-1,1.002397357E1
5.211024542E0,-2.013313293E-1,1.042222687E1,-9.857002258E-1,1.047067104E1
5.221081542E0,-1.239422607E-1,1.083716400E1,-9.988728333E-1,1.088380596E1
5.231139542E0,-1.291813660E-1,1.124506577E1,-8.125103760E-1,1.127512151E1
5.241196542E0,-3.597019958E-1,1.167527115E1,-3.677851868E-1,1.168659950E1
5.251253542E0,-7.003935242E-1,1.214574280E1,4.899311829E-1,1.217578136E1
5.261311542E0,-8.181985474E-1,1.250619324E1,1.564696198E0,1.263022535E1
5.271368542E0,-5.155279541E-1,1.271500900E1,2.533481598E0,1.297519757E1
5.281425542E0,1.146615601E-1,1.280766632E1,2.974314880E0,1.314899285E1
5.291483542E0,6.758445740E-1,1.270692581E1,2.374661865E0,1.294456444E1
5.301540542E0,8.747808838E-1,1.261052628E1,1.105451202E0,1.268907549E1
5.311597542E0,7.574249268E-1,1.268162842E1,-3.141966248E-1,1.270811203E1
5.321654542E0,3.751199341E-1,1.290391617E1,-1.329235840E0,1.297762056E1
5.331712542E0,-1.185534668E-1,1.314850754E1,-1.795216827E0,1.327102516E1
5.341769542E0,-4.947212219E-1,1.331720673E1,-1.374890900E0,1.339712913E1
5.351826542E0,-6.411167908E-1,1.328083237E1,-3.037184143E-1,1.329976631E1
5.361884542E0,-6.471043396E-1,1.305959244E1,9.160949707E-1,1.310766679E1
5.371941542E0,-5.975573730E-1,1.277578262E1,1.972747650E0,1.294099802E1
5.381998542E0,-3.662882996E-1,1.240679993E1,2.552641754E0,1.267197031E1
5.392055542E0,-2.439926147E-2,1.201805832E1,2.693798218E0,1.231628475E1
5.402113542E0,2.369572449E-1,1.160461807E1,2.345622253E0,1.184167442E1
5.412170542E0,2.345622253E-1,1.123174347E1,1.645977173E0,1.135413236E1
5.422227542E0,1.113684082E-1,1.090003326E1,8.893006897E-1,1.093681781E1
5.432285542E0,1.032852173E-2,1.055110886E1,3.757186890E-1,1.055780135E1
5.442342542E0,-1.197509766E-1,1.026894562E1,2.785707092E-1,1.027342134E1
5.452399542E0,-3.505709839E-1,9.966724091E0,4.085005188E-1,9.981250512E0
5.462456542E0,-5.168751526E-1,9.682914276E0,7.090754700E-1,9.722591055E0
5.472514542E0,-6.111790466E-1,9.337133331E0,9.855505371E-1,9.408873925E0
5.482571542E0,-6.991960144E-1,8.962312775E0,1.070424042E0,9.053051031E0
5.492628542E0,-7.325765991E-1,8.610843658E0,1.117725677E0,8.713931815E0
5.502686542E0,-6.342311096E-1,8.301736450E0,1.186283112E0,8.410014555E0
5.512743542E0,-5.165757751E-1,7.929610291E0,1.132095795E0,8.026656264E0
5.522800542E0,-3.450325012E-1,7.623197479E0,9.680369568E-1,7.692157226E0
5.532857542E0,-2.221380615E-1,7.364984436E0,7.237449646E-1,7.403792801E0
5.542915542E0,-1.077758789E-1,7.142696686E0,5.905220032E-1,7.167876103E0
5.552972542E0,6.436614990E-3,6.944059753E0,6.439608765E-1,6.973857820E0
5.563029542E0,1.538800049E-1,6.772366791E0,7.306306458E-1,6.813402391E0
5.573087542E0,2.378553772E-1,6.653513947E0,7.723937988E-1,6.702418608E0
5.583144542E0,2.294728088E-1,6.556066589E0,7.417076111E-1,6.601878299E0
5.593201542E0,1.698966980E-1,6.503825226E0,6.468049622E-1,6.538116251E0
5.603258542E0,1.525328064E-1,6.446344757E0,4.722679138E-1,6.465420633E0
5.613316542E0,1.279838562E-1,6.453380127E0,2.200424194E-1,6.458398687E0
5.623373542E0,7.125183105E-2,6.505920868E0,-1.420545959E-1,6.507861605E0
5.633430542E0,2.335144043E-2,6.581663361E0,-5.581892395E-1,6.605332173E0
5.643488542E0,-1.362167358E-2,6.722969513E0,-8.405021667E-1,6.775319071E0
5.653545542E0,-5.852828979E-2,6.903494110E0,-1.035097504E0,6.980908489E0
5.663602542E0,-1.456471252E-1,7.180567932E0,-1.116827545E0,7.268361072E0
5.673659542E0,-1.655557251E-1,7.524103546E0,-9.345066833E-1,7.583722411E0
5.683717542E0,-1.510359192E-1,7.912845154E0,-6.102809143E-1,7.937781370E0
5.693774542E0,-1.234931946E-1,8.255632324E0,-3.519181824E-1,8.264052399E0
5.703831542E0,-7.469467163E-2,8.536148987E0,-1.089733887E-1,8.537171312E0
5.713889542E0,-9.729766846E-3,8.868757324E0,2.902464294E-1,8.873510812E0
5.723946542E0,5.658233643E-2,9.272018738E0,8.217910767E-1,9.308537673E0
5.734003542E0,6.900650024E-2,9.762099609E0,1.241518250E0,9.840971408E0
5.744061542E0,-7.334747314E-2,1.026250900E1,1.293310547E0,1.034394137E1
5.754118542E0,-2.486329651E-1,1.069166656E1,1.094823303E0,1.075045070E1
5.764175542E0,-2.179467773E-1,1.099942657E1,5.637277222E-1,1.101601900E1
5.774232542E0,-7.349716187E-2,1.127650040E1,-1.477427673E-1,1.127770770E1
5.784290542E0,8.023315430E-2,1.159892990E1,-5.634283447E-1,1.161288352E1
5.794347542E0,3.251239014E-1,1.194980026E1,-4.438270569E-1,1.196245854E1
5.804404542E0,4.754113770E-1,1.234946915E1,-0.000000000E0,1.235861660E1
5.814461542E0,4.851411438E-1,1.275437714E1,6.186634827E-1,1.277858531E1
5.824519542E0,5.415737915E-1,1.317275711E1,1.222358093E0,1.324043018E1
5.834576542E0,7.291337585E-1,1.342977264E1,1.482666779E0,1.353102842E1
5.844633542E0,8.791218567E-1,1.334609665E1,1.486708374E0,1.345739398E1
5.854691542E0,6.165678406E-1,1.381207764E1,6.722520447E-1,1.384216628E1
5.864748542E0,9.327104187E-1,1.380519196E1,6.346801758E-2,1.383680967E1
5.874805542E0,7.879614258E-1,1.421039932E1,-2.044747925E-1,1.423369741E1
5.884863542E0,8.617579651E-1,1.434302353E1,-5.239105225E-2,1.436898380E1
5.894920542E0,1.299597473E0,1.390278900E1,1.175804901E0,1.401281602E1
5.904977542E0,1.135987701E0,1.394425278E1,2.008373566E0,1.413386776E1
5.915034542E0,1.122815094E0,1.353171066E1,2.786156158E0,1.386111732E1
5.925092542E0,1.174607391E0,1.315165100E1,3.052602081E0,1.355226941E1
5.935149542E0,1.207987976E0,1.262983612E1,2.851719818E0,1.300401097E1
5.945206542E0,1.311871948E0,1.217388428E1,2.374661865E0,1.247250919E1
5.955264542E0,1.229543152E0,1.171718399E1,1.669178925E0,1.189917372E1
5.965321542E0,1.074166260E0,1.135433853E1,9.327104187E-1,1.144311083E1
5.975378542E0,9.418414307E-1,1.099733093E1,3.528163147E-1,1.104322563E1
5.985435542E0,7.608677673E-1,1.070139633E1,-9.430389404E-2,1.072882549E1
5.995493542E0,5.718109131E-1,1.046099625E1,-3.180885315E-1,1.048144029E1
6.005550542E0,4.689747620E-1,1.023047562E1,-3.544628906E-1,1.024735149E1
6.015607542E0,4.861889648E-1,9.984387360E0,-2.612068176E-1,9.999629976E0
6.025665542E0,5.670208740E-1,9.768835602E0,2.933898926E-2,9.785321786E0
6.035722542E0,6.056405640E-1,9.556876373E0,3.936813354E-1,9.584136450E0
6.045779542E0,6.442602539E-1,9.261390839E0,7.869136047E-1,9.317063087E0
6.055836542E0,5.861810303E-1,8.936566315E0,1.141226807E0,9.028190534E0
6.065894542E0,4.608915710E-1,8.630303192E0,1.305884399E0,8.740702963E0
6.075951542E0,3.745211792E-1,8.227939911E0,1.288670197E0,8.336661932E0
6.086008542E0,3.200344849E-1,7.826474762E0,1.141975250E0,7.915821925E0
6.096066542E0,1.749861145E-1,7.491770782E0,8.184979248E-1,7.538381023E0
6.106123542E0,7.664062500E-2,7.180268555E0,4.261637878E-1,7.193312580E0
6.116181083E0,6.077362061E-2,6.806645508E0,-4.490661621E-4,6.806916828E0
6.126238083E0,4.760101318E-2,6.533014526E0,-3.655398560E-1,6.543406150E0
6.136296083E0,2.335144043E-2,6.280339966E0,-6.348298645E-1,6.312386580E0
6.146353083E0,3.023712158E-2,6.048322449E0,-9.207353210E-1,6.118077497E0
6.156410083E0,3.038681030E-2,5.905070343E0,-1.134490814E0,6.013139656E0
6.166468083E0,5.643264771E-2,5.775739288E0,-1.211879883E0,5.901779547E0
6.176525083E0,6.601272583E-2,5.692662048E0,-1.228645020E0,5.824116024E0
6.186582083E0,-9.430389404E-3,5.708678741E0,-1.173260193E0,5.828004923E0
6.196639083E0,-1.273851013E-1,5.786965942E0,-1.145418091E0,5.900608815E0
6.206697083E0,-2.142045593E-1,5.916895752E0,-1.278491364E0,6.057233618E0
6.216754083E0,-2.966830444E-1,6.086044006E0,-1.453627167E0,6.264262480E0
6.226811083E0,-3.109034729E-1,6.277046814E0,-1.629062347E0,6.492443439E0
6.236869083E0,-1.787283325E-1,6.555916901E0,-1.772164764E0,6.793567412E0
6.246926083E0,6.526428223E-2,6.911726990E0,-1.817670135E0,7.147038137E0
6.256983083E0,3.065625000E-1,7.252119141E0,-1.636397095E0,7.440766630E0
6.267040083E0,5.110372925E-1,7.660170593E0,-1.331930237E0,7.791881081E0
6.277098083E0,5.774990845E-1,8.141719208E0,-1.051263885E0,8.229596139E0
6.287155083E0,4.930746460E-1,8.664881287E0,-9.695338440E-1,8.732885330E0
6.297212083E0,2.736309814E-1,9.206754456E0,-1.211730194E0,9.290182538E0
6.307270083E0,8.981323242E-3,9.759704590E0,-1.627266083E0,9.894438299E0
6.317327083E0,-2.001338196E-1,1.032313293E1,-2.088606720E0,1.053420169E1
6.327384083E0,-2.544708252E-1,1.081620758E1,-2.532882843E0,1.111173242E1
6.337441083E0,-3.074606323E-1,1.131018036E1,-2.636617126E0,1.161750669E1
6.347499083E0,-3.338058472E-1,1.183603683E1,-2.254461823E0,1.205345562E1
6.357556083E0,-3.971241760E-1,1.232985992E1,-1.407972107E0,1.241634160E1
6.367613083E0,-3.778143311E-1,1.277892609E1,-4.749623108E-1,1.279332970E1
6.377671083E0,-2.195933533E-1,1.309117676E1,3.035687256E-1,1.309653710E1
6.387728083E0,1.475930786E-1,1.326765976E1,8.237370300E-1,1.329402580E1
6.397785083E0,4.586462402E-1,1.338591385E1,8.467890930E-1,1.342051034E1
6.407842083E0,4.607418823E-1,1.359981903E1,2.408491516E-1,1.360975272E1
6.417900083E0,2.068698120E-1,1.391416534E1,-4.451742554E-1,1.392282200E1
6.427957083E0,-1.628613281E-1,1.414708099E1,-7.662565613E-1,1.416875342E1
6.438014083E0,-5.843847656E-1,1.411864014E1,-6.891668701E-1,1.414752472E1
6.448072083E0,-8.909472656E-1,1.392973297E1,-1.851649475E-1,1.395942455E1
6.458129083E0,-1.015039215E0,1.357512039E1,3.701802063E-1,1.361804801E1
6.468186083E0,-9.885443115E-1,1.317739746E1,8.687933350E-1,1.324295381E1
6.478243083E0,-7.171586609E-1,1.275138336E1,1.254990234E0,1.283304698E1
6.488301083E0,-3.290158081E-1,1.226055405E1,1.450034637E0,1.235038612E1
6.498358083E0,6.870712280E-2,1.179606995E1,1.589095459E0,1.190282367E1
6.508415083E0,4.191284180E-1,1.138038437E1,1.461860046E0,1.148154396E1
6.518473083E0,6.213578796E-1,1.102726868E1,1.029858398E0,1.109267093E1
6.528530083E0,5.393284607E-1,1.073702225E1,1.546284485E-1,1.075167112E1
6.538587083E0,2.841091919E-1,1.056772430E1,-6.861730957E-1,1.059378820E1
6.548644083E0,-5.568420410E-2,1.051802765E1,-1.058149567E0,1.057126704E1
6.558702083E0,-4.317022705E-1,1.042552002E1,-8.705895996E-1,1.047070966E1
6.568759083E0,-8.063731384E-1,1.028107040E1,-3.698808289E-1,1.031927605E1
6.578816083E0,-1.124162292E0,1.006791367E1,8.397537231E-2,1.013082812E1
6.588874083E0,-1.313668213E0,9.795929260E0,4.962181091E-1,9.896069253E0
6.598931083E0,-1.387614441E0,9.463470612E0,8.099656677E-1,9.598895470E0
6.608988083E0,-1.246008911E0,9.105415192E0,8.087681580E-1,9.225791562E0
6.619045083E0,-9.963281250E-1,8.764723663E0,5.804928589E-1,8.840250143E0
6.629103083E0,-6.471043396E-1,8.412955170E0,2.724334717E-1,8.442202243E0
6.639160083E0,-2.965333557E-1,7.999963989E0,-1.242416382E-2,8.005467520E0
6.649217083E0,-4.296066284E-2,7.617509308E0,-2.234852600E-1,7.620908039E0
6.659275083E0,2.417472839E-1,7.318730621E0,-2.553689575E-1,7.327173600E0
6.669332083E0,4.764591980E-1,7.044351196E0,-1.225950623E-1,7.061510228E0
6.679389083E0,6.387217712E-1,6.805597687E0,9.086105347E-2,6.836108623E0
6.689446083E0,7.562274170E-1,6.609056396E0,2.642005920E-1,6.657425051E0
6.699504083E0,7.557783508E-1,6.545887756E0,4.093986511E-1,6.602079573E0
6.709561083E0,8.782237244E-1,6.417155457E0,3.990701294E-1,6.489254043E0
6.719618083E0,8.586145020E-1,6.241121521E0,1.112187195E-1,6.300887740E0
6.729676083E0,6.596781921E-1,6.110293579E0,-4.662803650E-1,6.163463338E0
6.739733083E0,4.751119995E-1,6.029012604E0,-1.155896301E0,6.157176353E0
6.749790083E0,3.993695068E-1,6.003266144E0,-1.676363983E0,6.245710256E0
6.759847083E0,3.625460815E-1,6.034850464E0,-2.007026367E0,6.370165981E0
6.769905083E0,2.101629639E-1,6.166726227E0,-2.047292633E0,6.501083598E0
6.779962083E0,1.413061523E-1,6.406527557E0,-1.839225311E0,6.666806771E0
6.790019083E0,1.053808594E-1,6.681805115E0,-1.605261841E0,6.872735285E0
6.800077083E0,-1.422042847E-2,7.080725555E0,-1.319955139E0,7.202718805E0
6.810134083E0,-1.411564636E-1,7.472011871E0,-9.593550110E-1,7.534669773E0
6.820191083E0,-1.853146362E-1,7.937693481E0,-8.181985474E-1,7.981902542E0
6.830248083E0,-1.971400452E-1,8.359516296E0,-9.744735718E-1,8.418430712E0
6.840306083E0,-2.011816406E-1,8.842711487E0,-1.190324707E0,8.924734920E0
6.850363083E0,-2.550695801E-1,9.360035706E0,-1.377136230E0,9.464239700E0
6.860420083E0,-3.288661194E-1,9.867480469E0,-1.519639893E0,9.989225652E0
6.870478083E0,-4.070036316E-1,1.040022263E1,-1.397793274E0,1.050162410E1
6.880535083E0,-4.224215698E-1,1.091230774E1,-1.113085327E0,1.097706059E1
6.890592083E0,-2.821632385E-1,1.139939484E1,-8.596623230E-1,1.143524543E1
6.900649083E0,-3.158432007E-2,1.190100174E1,-6.140231323E-1,1.191687310E1
6.910707083E0,3.119512939E-1,1.242146942E1,-3.318598938E-1,1.242981686E1
6.920764083E0,7.497908020E-1,1.290481430E1,1.990859985E-2,1.292659331E1
6.930821083E0,1.246457977E0,1.325897781E1,4.674778748E-1,1.332564016E1
6.940879083E0,1.704355774E0,1.342183914E1,7.405101013E-1,1.354986899E1
6.950936083E0,1.821711731E0,1.359248428E1,5.766009521E-1,1.372613315E1
6.960993083E0,1.527124329E0,1.377570328E1,1.960922241E-2,1.386010440E1
6.971050083E0,1.127156067E0,1.399230286E1,-7.304809570E-1,1.405662201E1
6.981108083E0,9.922865295E-1,1.414229095E1,-1.061742096E0,1.421676202E1
6.991165083E0,9.804611206E-1,1.414244064E1,-5.580395508E-1,1.418736549E1
7.001222083E0,9.735754395E-1,1.402688095E1,5.355862427E-1,1.407082410E1
7.011280083E0,9.334588623E-1,1.383123779E1,1.679208069E0,1.396403323E1
7.021337083E0,1.119671631E0,1.347991837E1,2.331401825E0,1.372578953E1
7.031394083E0,1.433718567E0,1.299642380E1,2.500699768E0,1.331225299E1
7.041451083E0,1.748364258E0,1.253897507E1,2.270328827E0,1.286223411E1
7.051509083E0,1.949396210E0,1.214454529E1,1.610051880E0,1.240493422E1
7.061566083E0,1.993704071E0,1.178888489E1,7.379653931E-1,1.197903401E1
7.071623083E0,1.836231537E0,1.151854706E1,-3.652404785E-2,1.166404761E1
7.081680083E0,1.596579895E0,1.135224289E1,-6.530918884E-1,1.148255263E1
7.091738083E0,1.273701324E0,1.120210510E1,-8.557704163E-1,1.130671556E1
7.101795083E0,9.083111572E-1,1.106663681E1,-7.704478455E-1,1.113054668E1
7.111851542E0,5.535488892E-1,1.101559296E1,-4.294569397E-1,1.103785024E1
7.121909542E0,2.878514099E-1,1.093266541E1,1.640588379E-1,1.093768470E1
7.131966542E0,2.439926147E-1,1.074375824E1,8.292755127E-1,1.077847723E1
7.142023542E0,3.456312561E-1,1.046578629E1,1.361119537E0,1.055958285E1
7.152080542E0,4.688250732E-1,1.012569351E1,1.584305420E0,1.025960475E1
7.162138542E0,5.771997070E-1,9.648336182E0,1.576072540E0,9.793240282E0
7.172195542E0,5.929170227E-1,9.106762390E0,1.409169617E0,9.234198982E0
7.182252542E0,5.264552307E-1,8.602461090E0,1.063538361E0,8.683928014E0
7.192310542E0,3.677851868E-1,8.078400879E0,6.652166748E-1,8.114082815E0
7.202367542E0,1.225950623E-1,7.541766815E0,2.463876343E-1,7.546786277E0
7.212424542E0,-1.475930786E-1,7.052434387E0,-1.408570862E-1,7.055384839E0
7.222481542E0,-4.495152283E-1,6.609954529E0,-4.770579529E-1,6.642375110E0
7.232539542E0,-6.786886597E-1,6.269263000E0,-8.310717773E-1,6.360421147E0
7.242596542E0,-8.201445007E-1,5.993835754E0,-1.158441010E0,6.159601418E0
7.252653542E0,-9.274713135E-1,5.849685516E0,-1.396446075E0,6.085152859E0
7.262711542E0,-1.028211823E0,5.740712128E0,-1.553619232E0,6.035455907E0
7.272768542E0,-1.135538635E0,5.724545746E0,-1.643432465E0,6.063063768E0
7.282825542E0,-1.150208130E0,5.792654114E0,-1.514400787E0,6.096821317E0
7.292882542E0,-1.140777740E0,5.862259369E0,-1.171912994E0,6.086118535E0
7.302940542E0,-1.144370270E0,6.063141632E0,-9.220825195E-1,6.238710278E0
7.312997542E0,-1.093326416E0,6.237079926E0,-7.571255493E-1,6.377285296E0
7.323054542E0,-1.044827271E0,6.391109619E0,-7.887098694E-1,6.523803296E0
7.333112542E0,-9.258247375E-1,6.567592621E0,-1.039139099E0,6.713436850E0
7.343169542E0,-8.496331787E-1,6.813381500E0,-1.334175568E0,6.994574215E0
7.353226542E0,-6.617738342E-1,7.300019531E0,-1.536105652E0,7.489182221E0
7.363283542E0,-5.864804077E-1,7.791447601E0,-1.659449158E0,7.987764800E0
7.373341542E0,-3.010240173E-1,8.303233337E0,-1.552870789E0,8.452556241E0
7.383398542E0,9.475296021E-2,8.671916656E0,-1.338965607E0,8.775189201E0
7.393455542E0,5.581892395E-1,9.033714294E0,-1.144819336E0,9.123057628E0
7.403513542E0,9.122030640E-1,9.447004852E0,-1.141975250E0,9.559399698E0
7.413570542E0,1.076561279E0,9.879455566E0,-1.384470978E0,1.003391182E1
7.423627542E0,1.089284821E0,1.026086243E1,-1.646126862E0,1.044899865E1
7.433684542E0,8.653504944E-1,1.067535049E1,-1.843715973E0,1.086789898E1
7.443742542E0,4.686753845E-1,1.114163086E1,-1.816921692E0,1.129853085E1
7.453799542E0,-3.158432007E-2,1.162886765E1,-1.521585846E0,1.172803410E1
7.463856542E0,-4.077520752E-1,1.211550568E1,-1.082997894E0,1.217064600E1
7.473914542E0,-4.947212219E-1,1.253762787E1,-7.837701416E-1,1.257183985E1
7.483971542E0,-4.800517273E-1,1.278895523E1,-6.638694763E-1,1.281516868E1
7.494028542E0,-6.441105652E-1,1.306543030E1,-7.089257812E-1,1.310049324E1
7.504085542E0,-7.929011536E-1,1.341645035E1,-1.072819061E0,1.348261002E1
7.514143542E0,-8.066725159E-1,1.369666763E1,-1.145268402E0,1.376811768E1
7.524200542E0,-6.843768311E-1,1.401685181E1,-7.801776123E-1,1.405521908E1
7.534257542E0,-6.861730957E-1,1.423839111E1,-4.101470947E-2,1.425497447E1
7.544315542E0,-6.274951172E-1,1.417552185E1,8.991801453E-1,1.421786534E1
7.554372542E0,-5.108876038E-1,1.399529663E1,1.855092316E0,1.412694947E1
7.564429542E0,-3.600013733E-1,1.372166565E1,2.675835571E0,1.398477047E1
7.574486542E0,-1.007405090E-1,1.330523163E1,3.301235046E0,1.370902951E1
7.584544542E0,2.347119141E-1,1.283356247E1,3.514691162E0,1.330821060E1
7.594601542E0,5.792953491E-1,1.233973938E1,3.316203918E0,1.279069816E1
7.604658542E0,7.831713867E-1,1.187944656E1,2.632874908E0,1.219289294E1
7.614715542E0,8.018824768E-1,1.152842651E1,1.783391418E0,1.169307993E1
7.624773542E0,7.957452393E-1,1.120120697E1,1.049467621E0,1.127837002E1
7.634830542E0,8.343649292E-1,1.084255280E1,6.750961304E-1,1.089554362E1
7.644887542E0,8.367599487E-1,1.048165329E1,7.737409973E-1,1.054342914E1
7.654945542E0,8.111631775E-1,1.005653732E1,1.020278320E0,1.014065562E1
7.665002542E0,7.123686218E-1,9.636361084E0,1.190923462E0,9.735770267E0
7.675059542E0,5.126838684E-1,9.216334534E0,1.232087860E0,9.312449059E0
7.685116542E0,3.502716064E-1,8.799750824E0,1.085692291E0,8.873389009E0
7.695174542E0,2.537223816E-1,8.503516846E0,9.343569946E-1,8.558457617E0
7.705231542E0,1.240919495E-1,8.221054230E0,9.297166443E-1,8.274388467E0
7.715288542E0,5.403762817E-2,7.901468811E0,9.104067993E-1,7.953927959E0
7.725346542E0,5.478607178E-2,7.599696350E0,7.330256653E-1,7.635162916E0
7.735403542E0,1.112187195E-1,7.344327393E0,4.951702881E-1,7.361841350E0
7.745460542E0,1.995350647E-1,7.162006531E0,3.263214111E-1,7.172212870E0
7.755517542E0,2.453398132E-1,6.965165863E0,2.377056885E-1,6.973537920E0
7.765575542E0,2.493814087E-1,6.798861694E0,1.498384094E-1,6.805083613E0
7.775632542E0,3.248245239E-1,6.660100250E0,-6.735992432E-2,6.668356895E0
7.785689542E0,3.785627747E-1,6.565047913E0,-3.186872864E-1,6.583671123E0
7.795747542E0,3.848497009E-1,6.544241180E0,-5.188211060E-1,6.576045716E0
7.805804542E0,3.538641357E-1,6.585255890E0,-6.553372192E-1,6.627237874E0
7.815861542E0,3.562591553E-1,6.646179199E0,-7.119195557E-1,6.693687174E0
7.825918542E0,3.546125793E-1,6.691684570E0,-7.176077271E-1,6.739388201E0
7.835976542E0,2.941383362E-1,6.751859436E0,-7.102729797E-1,6.795484597E0
7.846033542E0,2.749781799E-1,6.859335938E0,-7.256909180E-1,6.903095669E0
7.856090542E0,2.254312134E-1,6.993606720E0,-6.484515381E-1,7.027221612E0
7.866148542E0,1.315763855E-1,7.147337036E0,-5.216651917E-1,7.167557019E0
7.876205542E0,4.595443726E-2,7.312743073E0,-3.835025024E-1,7.322936380E0
7.886262542E0,-1.616638184E-2,7.445666656E0,-2.299218750E-1,7.449233342E0
7.896319542E0,-7.619155884E-2,7.564220123E0,-7.993377686E-2,7.565026149E0
7.906377542E0,-1.478924561E-1,7.730224915E0,-2.350112915E-2,7.731675220E0
7.916434542E0,-1.981878662E-1,8.017028503E0,-3.023712158E-2,8.019534821E0
7.926491542E0,-2.721340942E-1,8.292006683E0,-2.350112915E-2,8.296504330E0
7.936549542E0,-3.143463135E-1,8.603359222E0,-9.415420532E-2,8.609614889E0
7.946606542E0,-3.662882996E-1,8.964707794E0,-2.254312134E-1,8.975019342E0
7.956663542E0,-2.442919922E-1,9.303603058E0,-4.058061218E-1,9.315652798E0
7.966720542E0,-1.347198486E-3,9.644294586E0,-6.926097107E-1,9.669132748E0
7.976778542E0,2.932402039E-1,9.992320862E0,-9.135502625E-1,1.003827874E1
7.986835542E0,6.108796692E-1,1.036788986E1,-9.538165283E-1,1.042957718E1
7.996892542E0,8.958869934E-1,1.085348007E1,-8.819659424E-1,1.092604719E1
8.006949542E0,1.063388672E0,1.130134872E1,-7.222480774E-1,1.137422176E1
8.017007542E0,1.121318207E0,1.175730057E1,-4.602928162E-1,1.181961677E1
8.027064542E0,1.098864899E0,1.229183899E1,-2.213896179E-1,1.234284502E1
8.037121542E0,1.077459412E0,1.278970367E1,-9.086105347E-2,1.283532994E1
8.047179542E0,8.399034119E-1,1.299627411E1,-3.170407104E-1,1.302724427E1
8.057236542E0,6.074368286E-1,1.321092773E1,-5.414241028E-1,1.323596355E1
8.067293542E0,4.983137512E-1,1.358230545E1,-4.396357727E-1,1.359855204E1
8.077350542E0,4.739144897E-1,1.385638550E1,4.430786133E-2,1.386455831E1
8.087408542E0,4.810995483E-1,1.407987076E1,8.111631775E-1,1.411142101E1
8.097465542E0,4.361929321E-1,1.419617889E1,1.867067413E0,1.432507243E1
8.107522542E0,7.827223206E-1,1.424123520E1,2.913840637E0,1.455733154E1
8.117580417E0,1.024469604E0,1.420426208E1,3.796255646E0,1.473845841E1
8.127637417E0,1.129102020E0,1.408525955E1,4.378395081E0,1.479323330E1
8.137694417E0,1.204694824E0,1.377764923E1,4.518054657E0,1.454949229E1
8.147751417E0,1.272354126E0,1.326900696E1,4.246818695E0,1.399002858E1
8.157809417E0,1.284628601E0,1.265483414E1,3.523373108E0,1.319883539E1
8.167866417E0,1.226100311E0,1.201132233E1,2.532433777E0,1.233646655E1
8.177923417E0,1.081501007E0,1.141571091E1,1.460662537E0,1.155948247E1
8.187981417E0,7.692503357E-1,1.091066116E1,5.149291992E-1,1.094985960E1
8.198038417E0,3.356021118E-1,1.052191956E1,2.769241333E-2,1.052730672E1
8.208095417E0,-2.888992310E-2,1.024334885E1,-2.148033142E-1,1.024564155E1
8.218152417E0,-1.279838562E-1,9.984686737E0,-2.662962341E-1,9.989057152E0
8.228210417E0,-2.829116821E-2,9.645192719E0,-2.106120300E-1,9.647533384E0
8.238267417E0,1.059796143E-1,9.355694733E0,-4.834945679E-2,9.356419896E0
8.248324417E0,2.761756897E-1,9.090296631E0,2.408491516E-1,9.097679603E0
8.258381417E0,4.173321533E-1,8.817114716E0,6.996450806E-1,8.854670026E0
8.268439417E0,6.857240295E-1,8.491691437E0,1.064885559E0,8.585628815E0
8.278496417E0,8.797206116E-1,8.159681854E0,1.125060425E0,8.283723636E0
8.288553417E0,9.148974609E-1,7.842790833E0,9.675878906E-1,7.955038135E0
8.298611417E0,9.767189026E-1,7.546856232E0,7.126679993E-1,7.643095870E0
8.308668417E0,1.010698242E0,7.268435211E0,5.412744141E-1,7.358304108E0
8.318725417E0,9.553134155E-1,7.014263763E0,3.671864319E-1,7.088536220E0
8.328782417E0,8.014334106E-1,6.779851227E0,2.019300842E-1,6.830040551E0
8.338840417E0,6.001020813E-1,6.546785889E0,4.385879517E-2,6.574378417E0
8.348897417E0,4.171824646E-1,6.345604248E0,-1.613644409E-1,6.361349933E0
8.358954417E0,2.399510193E-1,6.179150391E0,-3.275189209E-1,6.192474843E0
8.369012417E0,5.807922363E-2,6.204747162E0,-5.563929749E-1,6.229914420E0
8.379069417E0,-1.152603149E-1,6.224057007E0,-8.008346558E-1,6.276424676E0
8.389126417E0,-1.930984497E-1,6.270610199E0,-9.618997192E-1,6.346896119E0
8.399183417E0,-2.079176331E-1,6.336173859E0,-1.041534119E0,6.424571755E0
8.409241417E0,-1.026864624E-1,6.458170166E0,-1.052461395E0,6.544171559E0
8.419298417E0,1.616638184E-2,6.664141846E0,-1.046922913E0,6.745894713E0
8.429355417E0,6.631210327E-2,6.950196991E0,-1.009650421E0,7.023462784E0
8.439412417E0,1.550775146E-1,7.277865601E0,-1.009949799E0,7.349243181E0
8.449470417E0,9.999206543E-2,7.657326508E0,-9.782157898E-1,7.720204258E0
8.459527417E0,3.203338623E-2,8.081244965E0,-7.957452393E-1,8.120391419E0
8.469584417E0,-1.541793823E-2,8.471483459E0,-5.492079163E-1,8.489281421E0
8.479642417E0,-6.601272583E-2,8.913813629E0,-3.689826965E-1,8.921691506E0
8.489699417E0,-1.642085266E-1,9.413324890E0,-2.559677124E-1,9.418236002E0
8.499756417E0,-1.510359192E-1,9.775122528E0,-2.751278687E-1,9.780159898E0
8.509814417E0,-1.089733887E-1,1.006521927E1,-4.439767456E-1,1.007559574E1
8.519871417E0,-1.939965820E-1,1.038405624E1,-7.024891663E-1,1.040959892E1
8.529928417E0,-3.460803223E-1,1.076022400E1,-9.538165283E-1,1.080795809E1
8.539985417E0,-4.700225830E-1,1.122126526E1,-9.946815491E-1,1.127506570E1
8.550043417E0,-5.257067871E-1,1.174757080E1,-6.881190491E-1,1.177944375E1
8.560100417E0,-3.683839417E-1,1.227761856E1,-1.541793823E-2,1.228315358E1
8.570157417E0,7.514373779E-2,1.270243515E1,8.704399109E-1,1.273244560E1
8.580214417E0,6.206094360E-1,1.293714706E1,1.475631409E0,1.303581291E1
8.590272417E0,1.076112213E0,1.307845322E1,1.687141571E0,1.323066146E1
8.600329417E0,1.196312256E0,1.324849960E1,1.548829193E0,1.339226555E1
8.610386417E0,7.682025146E-1,1.343007202E1,1.116378479E0,1.349826917E1
8.620444417E0,3.727249146E-2,1.364682129E1,7.506889343E-1,1.366750359E1
8.630501417E0,-6.845265198E-1,1.382255585E1,6.658154297E-1,1.385550204E1
8.640558417E0,-1.350491638E0,1.392030258E1,9.262738037E-1,1.401629890E1
8.650615417E0,-1.572629700E0,1.371507935E1,1.569486237E0,1.389387824E1
8.660673417E0,-1.398242340E0,1.330089066E1,2.321672058E0,1.357420108E1
8.670730417E0,-9.862989807E-1,1.279853531E1,2.772534485E0,1.313248793E1
8.680787417E0,-4.939727783E-1,1.229917374E1,2.573897552E0,1.257531838E1
8.690845417E0,-9.669891357E-2,1.185564606E1,1.802401886E0,1.199226195E1
8.700902417E0,-2.275268555E-2,1.159608582E1,8.732839966E-1,1.162894444E1
8.710959417E0,-5.433700562E-2,1.146765289E1,9.370513916E-2,1.146816446E1
8.721016417E0,-1.425036621E-1,1.138068375E1,-2.510279846E-1,1.138434385E1
8.731074417E0,-2.233355713E-1,1.118309464E1,1.202000427E-1,1.118597034E1
8.741131417E0,-3.168910217E-1,1.096110626E1,7.961943054E-1,1.099455301E1
8.751188417E0,-5.028044128E-1,1.070139633E1,1.336570587E0,1.079625475E1
8.761245417E0,-6.384223938E-1,1.043779449E1,1.687590637E0,1.059259643E1
8.771303417E0,-7.467970276E-1,1.010144394E1,1.743274841E0,1.027793183E1
8.781360417E0,-7.774832153E-1,9.730664978E0,1.476230164E0,9.872668158E0
8.791417417E0,-6.873706055E-1,9.295968933E0,1.017134857E0,9.376677454E0
8.801475417E0,-4.969665527E-1,8.829688568E0,5.409750366E-1,8.860193562E0
8.811532417E0,-3.288661194E-1,8.400381317E0,2.143542480E-1,8.409548558E0
8.821589417E0,-1.279838562E-1,8.103997650E0,1.058299255E-1,8.105699091E0
8.831646417E0,4.939727783E-2,7.706125031E0,6.077362061E-2,7.706522984E0
8.841704417E0,2.415975952E-1,7.391329651E0,1.610650635E-1,7.397030848E0
8.851761417E0,3.908372498E-1,7.151079254E0,4.617897034E-1,7.176624414E0
8.861818417E0,5.057981873E-1,6.955735474E0,7.098239136E-1,7.010131081E0
8.871876417E0,6.246510315E-1,6.756499786E0,7.497908020E-1,6.826614426E0
8.881933417E0,5.869294739E-1,6.523584137E0,5.387297058E-1,6.572051879E0
8.891990417E0,5.625302124E-1,6.428082733E0,1.640588379E-1,6.454734942E0
8.902047417E0,4.209246826E-1,6.360573120E0,-2.013313293E-1,6.377664330E0
8.912105417E0,2.833607483E-1,6.300398254E0,-4.619393921E-1,6.323661873E0
8.922162417E0,1.544787598E-1,6.336922302E0,-4.466711426E-1,6.354523040E0
8.932219417E0,2.993774414E-4,6.424041138E0,-4.878355408E-1,6.442537399E0
8.942277417E0,-8.532257080E-2,6.544690247E0,-5.273533630E-1,6.566456574E0
8.952334417E0,-1.631607056E-1,6.631210327E0,-5.707630920E-1,6.657728015E0
8.962391417E0,-2.788700867E-1,6.859186249E0,-6.554869080E-1,6.896076247E0
8.972448417E0,-3.589535522E-1,7.076683960E0,-6.174659729E-1,7.112634375E0
8.982506417E0,-3.314108276E-1,7.343429260E0,-4.794529724E-1,7.366523033E0
8.992563417E0,-3.385958862E-1,7.576344910E0,-4.284091187E-1,7.595997876E0
9.002620417E0,-3.655398560E-1,7.918233948E0,-4.857398987E-1,7.941535839E0
9.012678417E0,-4.626878357E-1,8.300089874E0,-5.694158936E-1,8.332455005E0
9.022735417E0,-4.972659302E-1,8.669671326E0,-7.072792053E-1,8.712675718E0
9.032792417E0,-5.071453857E-1,9.103169861E0,-8.095166016E-1,9.153153286E0
9.042849417E0,-5.363346863E-1,9.616153107E0,-6.177653503E-1,9.650890606E0
9.052907417E0,-6.057902527E-1,1.013093262E1,-3.376977539E-1,1.015464511E1
9.062964417E0,-5.819897461E-1,1.063209045E1,2.365081787E-2,1.064803357E1
9.073021417E0,-5.176235962E-1,1.110525650E1,3.891906738E-1,1.112412358E1
9.083079417E0,-3.439846802E-1,1.156405243E1,5.556445312E-1,1.158250296E1
9.093136417E0,-1.007405090E-1,1.195788345E1,5.777984619E-1,1.197225862E1
9.103193417E0,2.444416809E-1,1.225845840E1,5.044509888E-1,1.227126827E1
9.113251167E0,6.777905273E-1,1.258238480E1,5.131329346E-1,1.261107103E1
9.123309167E0,9.810598755E-1,1.284239410E1,8.789721680E-1,1.290976982E1
9.133366167E0,1.158740387E0,1.303773788E1,1.274898834E0,1.315107051E1
9.143423167E0,8.949888611E-1,1.317051178E1,1.341210938E0,1.326884443E1
9.153480167E0,4.451742554E-1,1.337813004E1,1.084045715E0,1.342935957E1
9.163538167E0,1.137634277E-2,1.370235580E1,7.322772217E-1,1.372191364E1
9.173595167E0,-3.439846802E-1,1.392584106E1,3.321592712E-1,1.393404839E1
9.183652167E0,-4.230203247E-1,1.395248566E1,4.478686523E-1,1.396607993E1
9.193710167E0,-2.912942505E-1,1.411549667E1,1.113833771E0,1.416237001E1
9.203767167E0,-5.792953491E-2,1.412013702E1,2.102976837E0,1.427599863E1
9.213824167E0,5.129832458E-1,1.392823608E1,3.058739319E0,1.426936573E1
9.223881167E0,1.119222565E0,1.355640930E1,3.929927673E0,1.415885673E1
9.233939167E0,1.512754211E0,1.328188019E1,4.404291229E0,1.407460649E1
9.243996167E0,1.495989075E0,1.301303925E1,4.414320374E0,1.382256843E1
9.254053167E0,1.179696808E0,1.267144958E1,3.894301758E0,1.330875296E1
9.264111167E0,7.342231750E-1,1.233839218E1,2.931503906E0,1.270309885E1
9.274168167E0,2.013313293E-1,1.184172501E1,1.841470642E0,1.198574151E1
9.284225167E0,-2.618055725E-1,1.139310791E1,8.265811157E-1,1.142605296E1
9.294282167E0,-6.179150391E-1,1.099149307E1,1.398092651E-1,1.100973595E1
9.304340167E0,-7.113208008E-1,1.049362839E1,-1.275347900E-1,1.051848274E1
9.314397167E0,-6.981481934E-1,9.967472534E0,2.484832764E-2,9.991923592E0
9.324454167E0,-5.391787720E-1,9.512718201E0,2.971321106E-1,9.532618151E0
9.334512167E0,-3.406915283E-1,9.048533478E0,4.556524658E-1,9.066402152E0
9.344569167E0,-2.392025757E-1,8.559201050E0,3.475772095E-1,8.569594529E0
9.354626167E0,-2.143542480E-1,8.162376251E0,1.664538574E-1,8.166886842E0
9.364683167E0,-1.857637024E-1,7.765102386E0,1.196012878E-1,7.768244827E0
9.374741167E0,-9.505233765E-2,7.400161285E0,1.336720276E-1,7.401978804E0
9.384798167E0,-1.070274353E-1,7.036717072E0,1.844165039E-1,7.039946837E0
9.394855167E0,-1.354682922E-1,6.752308502E0,2.257305908E-1,6.757438573E0
9.404913167E0,-1.357676697E-1,6.477779388E0,1.766326904E-1,6.481609196E0
9.414970167E0,-1.432521057E-1,6.215674438E0,5.897735596E-2,6.217604701E0
9.425027167E0,-2.445913696E-1,6.045328674E0,-7.529342651E-2,6.050743163E0
9.435084167E0,-3.046165466E-1,5.986650696E0,-1.763333130E-1,5.996988514E0
9.445142167E0,-2.401007080E-1,5.983207855E0,-2.237846375E-1,5.992203614E0
9.455199167E0,-1.032852173E-1,5.971532135E0,-2.254312134E-1,5.976678267E0
9.465256167E0,2.948867798E-2,5.963448944E0,-3.059637451E-1,5.971365564E0
9.475313167E0,1.216969299E-1,5.932762756E0,-4.520599365E-1,5.951205109E0
9.485371167E0,-2.619552612E-2,6.034700775E0,-4.824467468E-1,6.054011440E0
9.495428167E0,-2.978805542E-1,6.137387238E0,-3.543132019E-1,6.154818663E0
9.505485167E0,-5.412744141E-1,6.354735260E0,-3.513194275E-1,6.387414466E0
9.515543167E0,-8.391549683E-1,6.492748260E0,-4.758604431E-1,6.564023476E0
9.525600167E0,-1.086590424E0,6.722221069E0,-6.985972595E-1,6.845215335E0
9.535657167E0,-1.202000427E0,7.009623413E0,-8.689430237E-1,7.164822915E0
9.545714167E0,-1.100810852E0,7.299121399E0,-9.750723267E-1,7.445785638E0
9.555772167E0,-9.178912354E-1,7.662415924E0,-9.394464111E-1,7.774168873E0
9.565829167E0,-7.538323975E-1,8.074209595E0,-7.987390137E-1,8.148564774E0
9.575886167E0,-5.263055420E-1,8.559051361E0,-6.885681152E-1,8.602818362E0
9.585944167E0,-3.183879089E-1,9.045390015E0,-4.445755005E-1,9.061903705E0
9.596001167E0,-1.480421448E-1,9.491761780E0,-2.182461548E-1,9.495424664E0
9.606058167E0,-2.125579834E-2,1.003064117E1,-1.064286804E-1,1.003122830E1
9.616115167E0,-4.340972900E-2,1.047461792E1,-4.715194702E-2,1.047481400E1
9.626173167E0,-1.495390320E-1,1.095017899E1,-1.047821045E-3,1.095120006E1
9.636230167E0,-2.851570129E-1,1.145073807E1,-5.448669434E-2,1.145441773E1
9.646287167E0,-3.748205566E-1,1.193168793E1,-7.394622803E-2,1.193780278E1
9.656344167E0,-4.248165894E-1,1.236428833E1,-3.323089600E-2,1.237162881E1
9.666402167E0,-4.297563171E-1,1.279135025E1,2.128573608E-1,1.280033749E1
9.676459167E0,-3.754193115E-1,1.313174240E1,8.925938416E-1,1.316739617E1
9.686516167E0,-1.698966980E-1,1.330747696E1,1.886826324E0,1.344164876E1
9.696574167E0,4.460723877E-2,1.334474945E1,2.688409424E0,1.361293036E1
9.706631167E0,8.367599487E-2,1.327035416E1,2.801424408E0,1.356308519E1
9.716688167E0,-8.187973022E-2,1.313443680E1,2.177521820E0,1.331396769E1
9.726745167E0,-4.120930481E-1,1.302905594E1,9.981243896E-1,1.307372830E1
9.736803167E0,-7.237449646E-1,1.305869431E1,6.586303711E-3,1.307873645E1
9.746860167E0,-8.758287048E-1,1.307366318E1,-4.025129700E-1,1.310914801E1
9.756917167E0,-1.105900269E0,1.296244446E1,-1.904040527E-1,1.301092754E1
9.766975167E0,-1.212628326E0,1.281634827E1,2.710862732E-1,1.287644121E1
9.777032167E0,-1.207239532E0,1.245095810E1,9.322613525E-1,1.254403827E1
9.787089167E0,-1.011895752E0,1.207314377E1,1.502874756E0,1.220833183E1
9.797146167E0,-7.855664063E-1,1.168455185E1,1.826052704E0,1.185244004E1
9.807204167E0,-5.355862427E-1,1.133637589E1,1.877695312E0,1.150330433E1
9.817261167E0,-4.155358887E-1,1.103999222E1,1.557660828E0,1.115707872E1
9.827318167E0,-3.824546814E-1,1.075423645E1,9.134005737E-1,1.079973027E1
9.837376167E0,-4.186793518E-1,1.047087570E1,1.438508606E-1,1.048023012E1
9.847433167E0,-5.352868652E-1,1.033106644E1,-5.595364380E-1,1.036004569E1
9.857490167E0,-4.486170959E-1,1.031789383E1,-1.037492523E0,1.037962336E1
9.867547167E0,-2.716850281E-1,1.032882111E1,-1.135538635E0,1.039460467E1
9.877605167E0,-1.061293030E-1,1.032013916E1,-6.367758179E-1,1.034031040E1
9.887662167E0,-1.338217163E-1,1.031025970E1,3.739224243E-1,1.031790586E1
9.897719167E0,-3.097059631E-1,1.025128235E1,1.381477203E0,1.034858381E1
9.907776167E0,-5.173242188E-1,1.021161484E1,2.045196991E0,1.042724953E1
9.917834167E0,-5.673202515E-1,1.006012985E1,2.388283539E0,1.035528673E1
9.927891167E0,-4.909790039E-1,9.736053772E0,2.470013580E0,1.005647903E1
9.937948167E0,-2.980302429E-1,9.327702942E0,2.293530579E0,9.610158517E0
9.948006167E0,-1.749861145E-1,8.857380981E0,1.870659943E0,9.054456726E0
9.958063167E0,-7.349716187E-2,8.438551941E0,1.374890900E0,8.550139512E0
9.968120167E0,2.499801636E-2,8.050858154E0,9.617500305E-1,8.108138198E0
9.978177167E0,1.014889526E-1,7.691156158E0,6.448590088E-1,7.718809895E0
9.988235167E0,1.588197327E-1,7.334897003E0,4.532574463E-1,7.350604061E0
9.998292167E0,1.344204712E-1,7.081024933E0,4.153862000E-1,7.094471697E0
1.000834917E1,4.640350342E-3,6.872358856E0,4.920268250E-1,6.889951246E0
1.001840717E1,-8.352630615E-2,6.689738617E0,5.005590820E-1,6.708959592E0
1.002846417E1,-1.766326904E-1,6.551126862E0,4.144880676E-1,6.566602061E0
1.003852117E1,-2.300715637E-1,6.461912384E0,1.667532349E-1,6.468156710E0
1.004857817E1,-1.785786438E-1,6.408473511E0,-1.908531189E-1,6.413801368E0
1.005863617E1,-1.716929626E-1,6.408772888E0,-4.909790039E-1,6.429845161E0
1.006869317E1,-1.839674377E-1,6.475833435E0,-7.577243042E-1,6.522607517E0
1.007875017E1,-1.434017944E-1,6.587351532E0,-9.460327148E-1,6.656481216E0
1.008880817E1,-1.767823792E-1,6.745422821E0,-9.639953613E-1,6.816250296E0
1.009886517E1,-2.712359619E-1,6.986571350E0,-8.345146179E-1,7.041460276E0
1.010892217E1,-3.215313721E-1,7.302115173E0,-7.203021240E-1,7.344596897E0
1.011897858E1,-2.924917603E-1,7.664361877E0,-6.315367126E-1,7.695897156E0
1.012903658E1,-2.424957275E-1,8.100405121E0,-5.261558533E-1,8.121096433E0
1.013909358E1,-2.363584900E-1,8.497379608E0,-3.860472107E-1,8.509427595E0
1.014915058E1,-1.495390320E-1,8.842711487E0,-2.146536255E-1,8.846580387E0
1.015920758E1,-8.921447754E-2,9.171876984E0,-1.399589539E-1,9.173378611E0
1.016926558E1,-8.652008057E-2,9.479487305E0,-2.016307068E-1,9.482026167E0
1.017932258E1,-8.487350464E-2,9.855804749E0,-3.095562744E-1,9.861030161E0
1.018937958E1,-1.185534668E-1,1.025487488E1,-3.062631226E-1,1.026013210E1
1.019943758E1,-1.583706665E-1,1.061233154E1,-1.248403931E-1,1.061424737E1
1.020949458E1,-6.316864014E-2,1.089299789E1,6.975494385E-2,1.089340439E1
1.021955158E1,-7.499404907E-2,1.117920273E1,8.367599487E-2,1.117976741E1
1.022960858E1,-1.199006653E-1,1.152109177E1,5.014572144E-2,1.152182478E1
1.023966658E1,-1.077758789E-1,1.186462738E1,1.026864624E-1,1.186556122E1
1.024972358E1,-9.984237671E-2,1.212149323E1,3.230282593E-1,1.212620772E1
1.025978058E1,-4.834945679E-2,1.235530701E1,8.093669128E-1,1.238188288E1
1.026983858E1,7.065307617E-2,1.250110382E1,1.127904510E0,1.255208179E1
1.027989558E1,1.841171265E-2,1.256951157E1,1.067879333E0,1.261480584E1
1.028995258E1,-1.689985657E-1,1.262280075E1,6.547384644E-1,1.264089956E1
1.030000958E1,-2.393522644E-1,1.280272659E1,5.957611084E-2,1.280510238E1
1.031006758E1,-1.746867371E-1,1.299313065E1,-2.377056885E-1,1.299647889E1
1.032012458E1,9.220825195E-2,1.320793396E1,8.831634521E-2,1.320855108E1
1.033018158E1,4.577481079E-1,1.336286179E1,9.262738037E-1,1.340274567E1
1.034023858E1,7.717950439E-1,1.338621323E1,2.021396484E0,1.355995634E1
1.035029658E1,1.006207581E0,1.332543961E1,3.111429749E0,1.372081592E1
1.036035358E1,9.913883972E-1,1.310524750E1,3.983516235E0,1.373312654E1
1.037041058E1,8.535250854E-1,1.285272263E1,4.395160217E0,1.361023208E1
1.038046858E1,6.852749634E-1,1.250888763E1,4.009562073E0,1.315364815E1
1.039052558E1,5.017565918E-1,1.202659058E1,3.052003326E0,1.241794528E1
1.040058258E1,3.914360046E-1,1.150238068E1,2.023192749E0,1.168551635E1
1.041063958E1,3.291654968E-1,1.099912720E1,1.201850739E0,1.106948934E1
1.042069758E1,2.118095398E-1,1.057116714E1,5.556445312E-1,1.058787887E1
1.043075458E1,9.580078125E-2,1.013961456E1,8.487350464E-2,1.014042232E1
1.044081158E1,-2.724334717E-2,9.776469727E0,-1.939965820E-1,9.778432246E0
1.045086958E1,-1.202000427E-1,9.483678589E0,-1.463955688E-1,9.485570056E0
1.046092658E1,-1.350192261E-1,9.176517334E0,1.567240906E-1,9.178848676E0
1.047098358E1,-1.044827271E-1,8.905131683E0,5.284011841E-1,8.921406545E0
1.048104058E1,-1.404080200E-1,8.713979187E0,8.035290527E-1,8.752074418E0
1.049109858E1,-8.262817383E-2,8.548872528E0,1.030906219E0,8.611202968E0
1.050115558E1,-3.442840576E-2,8.394393768E0,1.145717468E0,8.472290161E0
1.051121258E1,-5.837860107E-3,8.222551117E0,1.222507782E0,8.312936077E0
1.052127058E1,1.496887207E-4,8.018375702E0,1.271605682E0,8.118579305E0
1.053132758E1,-1.526824951E-2,7.817343750E0,1.213077393E0,7.910919870E0
1.054138458E1,3.876937866E-2,7.557783508E0,9.898915100E-1,7.622432671E0
1.055144158E1,8.217910767E-2,7.297624512E0,7.801776123E-1,7.339669885E0
1.056149958E1,1.212478638E-1,7.039710846E0,5.641767883E-1,7.063322539E0
1.057155658E1,1.537303162E-1,6.835086365E0,2.751278687E-1,6.842348571E0
1.058161358E1,7.574249268E-2,6.667884064E0,-3.622467041E-2,6.668412633E0
1.059167158E1,-5.059478760E-2,6.548881531E0,-2.224374390E-1,6.552853390E0
1.060172858E1,-1.463955688E-1,6.471642151E0,-3.088078308E-1,6.480659385E0
1.061178558E1,-2.559677124E-1,6.465055847E0,-3.971241760E-1,6.482296984E0
1.062184258E1,-3.459306335E-1,6.482419739E0,-5.484594727E-1,6.514771022E0
1.063190058E1,-4.034111023E-1,6.555168457E0,-6.466552734E-1,6.599328531E0
1.064195758E1,-4.885839844E-1,6.647227020E0,-6.691085815E-1,6.698660139E0
1.065201458E1,-5.763015747E-1,6.794670410E0,-7.098239136E-1,6.855911280E0
1.066207158E1,-7.264393616E-1,6.988517303E0,-8.297245789E-1,7.074993366E0
1.067212958E1,-8.496331787E-1,7.253765717E0,-8.910969543E-1,7.357516387E0
1.068218658E1,-8.896000671E-1,7.505093079E0,-9.369017029E-1,7.615483911E0
1.069224358E1,-8.541238403E-1,7.804470520E0,-9.490264893E-1,7.908219705E0
1.070230158E1,-6.762936401E-1,8.203840027E0,-7.878117371E-1,8.269281203E0
1.071235858E1,-4.117936707E-1,8.653205566E0,-4.454736328E-1,8.674444499E0
1.072241558E1,-1.847158813E-1,9.141041107E0,-1.351689148E-1,9.143906338E0
1.073247258E1,-1.796264648E-2,9.646390228E0,1.426533508E-1,9.647461691E0
1.074253058E1,2.230361938E-2,1.014425491E1,3.014730835E-1,1.014875811E1
1.075258758E1,-5.433700562E-2,1.061562469E1,2.610571289E-1,1.061897316E1
1.076264458E1,-7.933502197E-3,1.102113144E1,3.038681030E-1,1.102532253E1
1.077270258E1,9.475296021E-2,1.140598114E1,3.655398560E-1,1.141223043E1
1.078275958E1,1.947450256E-1,1.177107193E1,3.559597778E-1,1.177806297E1
1.079281658E1,2.317181396E-1,1.206161774E1,5.122348022E-1,1.207471326E1
1.080287358E1,1.046324158E-1,1.235650452E1,8.033793640E-1,1.238303558E1
1.081293158E1,-4.370910645E-2,1.257864258E1,1.294807434E0,1.264518430E1
1.082298858E1,-8.577163696E-2,1.266606079E1,1.967807922E0,1.281829633E1
1.083304558E1,-1.175056458E-1,1.257594818E1,2.489173737E0,1.282046279E1
1.084310358E1,-1.079255676E-1,1.233944000E1,2.450554047E0,1.258088402E1
1.085316058E1,-1.899549866E-1,1.215128128E1,1.759141846E0,1.227942587E1
1.086321758E1,-4.242178345E-1,1.209439957E1,6.230044556E-1,1.211786269E1
1.087327458E1,-6.333329773E-1,1.216505264E1,-2.781216431E-1,1.218470222E1
1.088333258E1,-9.500743103E-1,1.239228012E1,-7.345225525E-1,1.245033217E1
1.089338958E1,-1.212478638E0,1.244092896E1,-5.734574890E-1,1.251302007E1
1.090344658E1,-1.319655762E0,1.242296631E1,-2.350112915E-2,1.249288340E1
1.091350358E1,-1.273701324E0,1.229812592E1,7.533833313E-1,1.238683989E1
1.092356158E1,-1.046922913E0,1.205443268E1,1.657952271E0,1.221287028E1
1.093361858E1,-6.782395935E-1,1.184711380E1,2.538571014E0,1.213500956E1
1.094367558E1,-3.984713745E-1,1.154579041E1,3.031795349E0,1.194386196E1
1.095373358E1,-1.721420288E-1,1.119327347E1,2.983595581E0,1.158537209E1
1.096379058E1,-1.689985657E-1,1.090422455E1,2.620899811E0,1.121605052E1
1.097384758E1,-3.683839417E-1,1.066756668E1,2.103126526E0,1.087914642E1
1.098390458E1,-6.144721985E-1,1.057206528E1,1.489702148E0,1.069417378E1
1.099396258E1,-7.969427490E-1,1.047566574E1,1.066232758E0,1.055990259E1
1.100401958E1,-9.315129089E-1,1.040725800E1,1.014739838E0,1.049802040E1
1.101407658E1,-1.030157776E0,1.037088364E1,1.213077393E0,1.049228332E1
1.102413458E1,-1.061293030E0,1.028526169E1,1.621577911E0,1.046625367E1
1.103419158E1,-9.656419373E-1,1.013302826E1,2.024090881E0,1.037823058E1
1.104424858E1,-7.854167175E-1,9.933493195E0,2.280208282E0,1.022206028E1
1.105430558E1,-5.137316895E-1,9.654922485E0,2.385439453E0,9.958502389E0
1.106436358E1,-2.234852600E-1,9.361682281E0,2.308050385E0,9.644591094E0
1.107442058E1,4.041595459E-3,9.010063477E0,2.128423920E0,9.258047773E0
1.108447758E1,8.921447754E-2,8.649014282E0,1.815424805E0,8.837939494E0
1.109453558E1,1.082249451E-1,8.409811707E0,1.536854095E0,8.549769944E0
1.110459258E1,4.745132446E-2,8.105644226E0,1.250798950E0,8.201720427E0
1.111464954E1,-6.765930176E-2,7.901768188E0,1.050665131E0,7.971600561E0
1.112470654E1,-1.654060364E-1,7.743696899E0,9.824070740E-1,7.807517178E0
1.113476454E1,-2.890489197E-1,7.565567322E0,9.506730652E-1,7.630539788E0
1.114482154E1,-3.469784546E-1,7.465575256E0,8.777746582E-1,7.525004738E0
1.115487854E1,-3.441343689E-1,7.330855408E0,7.331753540E-1,7.375460363E0
1.116493554E1,-3.158432007E-1,7.178172913E0,5.206173706E-1,7.203954868E0
1.117499354E1,-2.624043274E-1,7.085365906E0,2.794688416E-1,7.095728918E0
1.118505054E1,-2.691403198E-1,7.068002014E0,2.365081787E-2,7.073163956E0
1.119510754E1,-3.216810608E-1,7.057074738E0,-2.062710571E-1,7.067413268E0
1.120516554E1,-3.755690002E-1,7.112459564E0,-4.123924255E-1,7.134297487E0
1.121522254E1,-4.577481079E-1,7.267537079E0,-5.475613403E-1,7.302496282E0
1.122527954E1,-6.123765564E-1,7.464078369E0,-5.138813782E-1,7.506766615E0
1.123533654E1,-6.481521606E-1,7.752079468E0,-2.586621094E-1,7.783427483E0
1.124539454E1,-6.218069458E-1,8.057594147E0,8.502319336E-2,8.081998284E0
1.125545154E1,-5.462141418E-1,8.324489136E0,3.032693481E-1,8.347900428E0
1.126550854E1,-3.797602844E-1,8.630303192E0,4.707710266E-1,8.651472500E0
1.127556654E1,-2.192939758E-1,8.900042267E0,5.673202515E-1,8.920801223E0
1.128562354E1,-1.191522217E-1,9.193581848E0,6.852749634E-1,9.219856085E0
1.129568054E1,-7.783813477E-3,9.396410065E0,8.015830994E-1,9.430541774E0
1.130573754E1,1.079255676E-1,9.518855438E0,9.535171509E-1,9.567102578E0
1.131579554E1,3.188369751E-2,9.645492096E0,1.020727386E0,9.699403009E0
1.132585254E1,-1.829196167E-1,9.812993774E0,8.806187439E-1,9.854125825E0
1.133590954E1,-4.037104797E-1,1.005848328E1,4.897814941E-1,1.007848966E1
1.134596754E1,-6.060896301E-1,1.035636383E1,1.514849854E-1,1.037518984E1
1.135602454E1,-6.650669861E-1,1.064990341E1,4.206253052E-2,1.067073222E1
1.136608154E1,-5.815406799E-1,1.094194611E1,7.484436035E-2,1.095764463E1
1.137613854E1,-3.873944092E-1,1.125479553E1,2.556683350E-1,1.126436253E1
1.138619654E1,-1.440005493E-1,1.161823975E1,6.027964783E-1,1.163475804E1
1.139625354E1,-2.859054565E-2,1.194710587E1,1.059047699E0,1.199398758E1
1.140631054E1,8.652008057E-2,1.224468704E1,1.567540283E0,1.234491916E1
1.141636754E1,-1.007405090E-1,1.239123230E1,1.775906982E0,1.251825196E1
1.142642554E1,-2.833607483E-1,1.254211853E1,1.721270599E0,1.266285130E1
1.143648254E1,-3.778143311E-1,1.266186951E1,1.216669922E0,1.272579934E1
1.144653954E1,-3.460803223E-1,1.278790741E1,7.018904114E-1,1.281183038E1
1.145659754E1,-1.441502380E-1,1.283146683E1,5.098397827E-1,1.284240074E1
1.146665454E1,8.577163696E-2,1.288490570E1,6.506968689E-1,1.290161068E1
1.147671154E1,3.842509460E-1,1.280257690E1,1.152902527E0,1.286012474E1
1.148676854E1,6.795867920E-1,1.262040573E1,1.888323212E0,1.277897662E1
1.149682654E1,9.744735718E-1,1.241413467E1,2.752775574E0,1.275296482E1
1.150688354E1,1.187779999E0,1.219693634E1,3.297492828E0,1.269052940E1
1.151694054E1,1.199605408E0,1.191746750E1,3.397484894E0,1.245022041E1
1.152699754E1,1.099912720E0,1.161943726E1,3.288661194E0,1.212585760E1
1.153705554E1,9.553134155E-1,1.120584732E1,2.896327057E0,1.161345549E1
1.154711254E1,8.427474976E-1,1.079135925E1,2.296075287E0,1.106506302E1
1.155716954E1,6.096821594E-1,1.046099625E1,1.650318146E0,1.060790765E1
1.156722754E1,3.007246399E-1,1.015069153E1,1.040186920E0,1.020827912E1
1.157728454E1,9.864486694E-2,9.889634399E0,6.857240295E-1,9.913869921E0
1.158734154E1,9.879455566E-3,9.711355133E0,6.623725891E-1,9.733922825E0
1.159739854E1,1.077758789E-2,9.534273376E0,8.418493652E-1,9.571373743E0
1.160745654E1,1.197509766E-2,9.373807068E0,1.073268127E0,9.435057330E0
1.161751354E1,2.948867798E-2,9.232650604E0,1.253792725E0,9.317440794E0
1.162757054E1,2.595602417E-1,9.060358887E0,1.372795258E0,9.167444655E0
1.163762854E1,5.354365540E-1,8.902736664E0,1.369352417E0,9.023333001E0
1.164768554E1,6.497987366E-1,8.664132843E0,1.129401398E0,8.761562865E0
1.165774254E1,6.765930176E-1,8.447084198E0,8.256829834E-1,8.514268139E0
1.166779954E1,6.515950012E-1,8.212521973E0,6.677613831E-1,8.265349264E0
1.167785754E1,5.505551147E-1,7.950417023E0,5.403762817E-1,7.987756149E0
1.168791454E1,3.659889221E-1,7.723488922E0,4.903802490E-1,7.747690095E0
1.169797154E1,1.130149841E-1,7.542515259E0,4.159849548E-1,7.554823115E0
1.170802954E1,-1.745370483E-1,7.383545837E0,3.225791931E-1,7.392649704E0
1.171808654E1,-4.501139832E-1,7.282805328E0,1.559756470E-1,7.298368616E0
1.172814354E1,-7.173083496E-1,7.203320618E0,1.242416382E-2,7.238958043E0
1.173820054E1,-8.535250854E-1,7.128027191E0,-1.145118713E-1,7.179860004E0
1.174825854E1,-8.744815063E-1,7.062164154E0,-2.543211365E-1,7.120643207E0
1.175831554E1,-7.881111145E-1,7.018904114E0,-3.691323853E-1,7.072651045E0
1.176837254E1,-6.939569092E-1,7.045399017E0,-4.499642944E-1,7.093778357E0
1.177842954E1,-6.505471802E-1,7.103627930E0,-4.114942932E-1,7.145213009E0
1.178848754E1,-5.462141418E-1,7.263196106E0,-4.266128540E-1,7.296188463E0
1.179854454E1,-4.517605591E-1,7.353757782E0,-4.363426208E-1,7.380530875E0
1.180860154E1,-3.793112183E-1,7.548353119E0,-4.755610657E-1,7.572824449E0
1.181865954E1,-4.911286926E-1,7.826325073E0,-3.921844482E-1,7.851520884E0
1.182871654E1,-5.424719238E-1,8.111332397E0,-2.296224976E-1,8.132694236E0
1.183877354E1,-4.691244507E-1,8.432414703E0,4.221221924E-2,8.445559623E0
1.184883054E1,-3.564088440E-1,8.713380432E0,2.794688416E-1,8.725143475E0
1.185888854E1,-2.466870117E-1,9.025631104E0,4.860392761E-1,9.042074180E0
1.186894554E1,-7.903564453E-2,9.272467804E0,5.834866333E-1,9.291144303E0
1.187900254E1,4.610412598E-2,9.537416840E0,5.849835205E-1,9.555451391E0
1.188906054E1,1.264869690E-1,9.775122528E0,4.556524658E-1,9.786553968E0
1.189911754E1,1.791773987E-1,9.978998566E0,2.399510193E-1,9.983491043E0
1.190917454E1,2.146536255E-1,1.024664200E1,-1.028361511E-1,1.024940602E1
1.191923154E1,2.398013306E-1,1.049243088E1,-4.165837097E-1,1.050343527E1
1.192928954E1,1.817221069E-1,1.083910995E1,-6.297404480E-1,1.085890881E1
1.193934654E1,6.990463257E-2,1.115959351E1,-6.346801758E-1,1.117784562E1
1.194940354E1,1.766326904E-2,1.148801056E1,-2.740800476E-1,1.149129316E1
1.195946154E1,1.390608215E-1,1.176867691E1,4.403842163E-1,1.177773460E1
1.196951854E1,2.951861572E-1,1.197479828E1,1.338815918E0,1.205302272E1
1.197957554E1,3.559597778E-1,1.208032883E1,1.787732391E0,1.221707981E1
1.198963254E1,3.902384949E-1,1.212463669E1,1.596130829E0,1.223547034E1
1.199969054E1,1.841171265E-1,1.213840805E1,8.053253174E-1,1.216648667E1
1.200974754E1,-2.978805542E-2,1.222238342E1,2.544708252E-3,1.222241999E1
1.201980454E1,-1.510359192E-1,1.249017654E1,-5.541476440E-1,1.250337561E1
1.202986154E1,-2.977308655E-1,1.276186157E1,-9.168434143E-1,1.279821692E1
1.203991954E1,-3.977229309E-1,1.298878967E1,-8.629554749E-1,1.302349926E1
1.204997654E1,-4.911286926E-1,1.301902679E1,-3.835025024E-1,1.303393034E1
1.206003354E1,-3.201841736E-1,1.301438644E1,6.373745728E-1,1.303391801E1
1.207009154E1,-1.010398865E-1,1.295061905E1,2.045646057E0,1.311157544E1
1.208014854E1,1.546284485E-1,1.272533752E1,3.186124420E0,1.311905156E1
1.209020554E1,4.674778748E-1,1.224798019E1,3.740571442E0,1.281496895E1
1.210026254E1,6.500981140E-1,1.169787415E1,3.526516571E0,1.223516270E1
1.211032054E1,5.641767883E-1,1.118563934E1,2.776127014E0,1.153879128E1
1.212037742E1,2.053729248E-1,1.087982529E1,1.886377258E0,1.104405702E1
1.213043442E1,-2.900967407E-1,1.055515045E1,1.123563538E0,1.061874532E1
1.214049242E1,-6.936575317E-1,1.028840515E1,5.849835205E-1,1.032834193E1
1.215054942E1,-9.964778137E-1,1.013093262E1,4.131408691E-1,1.018820147E1
1.216060642E1,-1.185983734E0,9.966574402E0,5.224136353E-1,1.005047654E1
1.217066342E1,-1.035696259E0,9.796528015E0,8.506809998E-1,9.887784689E0
1.218072142E1,-7.238946533E-1,9.487720184E0,1.323397980E0,9.606885030E0
1.219077842E1,-3.137475586E-1,9.209748230E0,1.661095734E0,9.363607159E0
1.220083542E1,1.960922241E-2,8.850495300E0,1.634451141E0,9.000171227E0
1.221089242E1,2.808160400E-1,8.522377625E0,1.499431915E0,8.657833106E0
1.222095042E1,4.851411438E-1,8.231083374E0,1.283131714E0,8.344610382E0
1.223100742E1,6.701564026E-1,8.008945312E0,1.169368286E0,8.121559999E0
1.224106442E1,7.053332520E-1,7.909252625E0,1.172062683E0,8.026674468E0
1.225112242E1,5.722599792E-1,7.903863831E0,1.208886108E0,8.016230446E0
1.226117942E1,4.662803650E-1,7.839797058E0,1.140478363E0,7.936027104E0
1.227123642E1,3.635939026E-1,7.811954956E0,9.949809265E-1,7.883452785E0
1.228129342E1,1.962419128E-1,7.774233398E0,9.366023254E-1,7.832907489E0
1.229135142E1,1.187031555E-1,7.710166626E0,9.380992126E-1,7.767933443E0
1.230140842E1,3.098556519E-2,7.606582031E0,7.153623962E-1,7.640209006E0
1.231146542E1,-1.661544800E-2,7.493417358E0,2.655477905E-1,7.498139463E0
1.232152342E1,-2.501298523E-1,7.574099579E0,-2.309696960E-1,7.581747580E0
1.233158042E1,-5.788462830E-1,7.839797058E0,-3.788621521E-1,7.870261588E0
1.234163742E1,-8.589138794E-1,7.977959747E0,-2.950364685E-1,8.029484498E0
1.235169442E1,-1.005309448E0,8.124654694E0,1.901046753E-2,8.186636817E0
1.236175242E1,-9.970765686E-1,8.369246063E0,2.104623413E-1,8.431057807E0
1.237180942E1,-1.052910461E0,8.407566376E0,3.338058472E-1,8.479812448E0
1.238186642E1,-1.000968475E0,8.551716614E0,3.372486877E-1,8.616700738E0
1.239192442E1,-8.804690552E-1,8.568182373E0,2.911445618E-1,8.618221399E0
1.240198142E1,-8.583151245E-1,8.571325836E0,7.244934082E-2,8.614498265E0
1.241203842E1,-8.107141113E-1,8.647068329E0,-1.916015625E-1,8.687103039E0
1.242209542E1,-8.102650452E-1,8.788374481E0,-2.823129272E-1,8.830161723E0
1.243215342E1,-7.866142273E-1,9.024283905E0,-1.568737793E-1,9.059860447E0
1.244221042E1,-8.411009216E-1,9.327253876E0,5.313949585E-2,9.365251701E0
1.245226742E1,-8.985813904E-1,9.490713959E0,1.838177490E-1,9.534929938E0
1.246232442E1,-1.021026764E0,9.686207428E0,6.915618896E-2,9.740117688E0
1.247238242E1,-1.004561005E0,9.862840118E0,-5.598358154E-2,9.914025024E0
1.248243942E1,-8.973838806E-1,1.004605911E1,-9.550140381E-2,1.008651189E1
1.249249642E1,-8.824150085E-1,1.032837204E1,-8.068222046E-2,1.036631250E1
1.250255442E1,-7.830216980E-1,1.054332504E1,-1.525328064E-1,1.057346169E1
1.251261142E1,-6.352789307E-1,1.064586182E1,-2.445913696E-1,1.066760414E1
1.252266842E1,-4.773573303E-1,1.065813629E1,-3.369493103E-1,1.067414044E1
1.253272542E1,-1.712438965E-1,1.071187454E1,-2.459385681E-1,1.071606581E1
1.254278342E1,1.034349060E-1,1.092024124E1,-6.062393188E-2,1.092089936E1
1.255284042E1,1.094224548E-1,1.122380997E1,1.432521057E-1,1.122525744E1
1.256289742E1,-1.694476318E-1,1.154653885E1,2.612068176E-1,1.155073595E1
1.257295442E1,-6.291416931E-1,1.186881866E1,1.064286804E-1,1.188595822E1
1.258301242E1,-1.133442993E0,1.220307358E1,-3.150947571E-1,1.225964855E1
1.259306942E1,-1.313368835E0,1.246847168E1,-5.842350769E-1,1.255105790E1
1.260312642E1,-1.244512024E0,1.262564484E1,-4.176315308E-1,1.269370450E1
1.261318442E1,-7.991880798E-1,1.253134094E1,4.209246826E-1,1.256385231E1
1.262324142E1,-3.861968994E-1,1.225082428E1,1.415007477E0,1.233831795E1
1.263329842E1,1.437011719E-2,1.190728867E1,2.233355713E0,1.211493325E1
1.264335542E1,5.041516113E-1,1.148486710E1,2.521057434E0,1.176911516E1
1.265341342E1,9.330097961E-1,1.110016708E1,2.070644073E0,1.133012725E1
1.266347042E1,1.303938446E0,1.074884766E1,1.381776581E0,1.091546096E1
1.267352742E1,1.628014526E0,1.040665924E1,7.036866760E-1,1.055671174E1
1.268358542E1,1.862427063E0,1.021790176E1,3.649411011E-1,1.039265765E1
1.269364242E1,2.016905823E0,1.013482452E1,5.957611084E-2,1.033373730E1
1.270369942E1,1.971999207E0,9.998458099E0,-3.671864319E-1,1.019768460E1
1.271375642E1,1.787732391E0,9.916728058E0,-6.712042236E-1,1.009891071E1
1.272381442E1,1.644629974E0,9.735455017E0,-8.915460205E-1,9.913563761E0
1.273387142E1,1.527274017E0,9.559121704E0,-9.481283569E-1,9.726680886E0
1.274392842E1,1.348395996E0,9.271270294E0,-8.175997925E-1,9.404418858E0
1.275398642E1,1.161285095E0,9.040150909E0,-4.602928162E-1,9.126049584E0
1.276404342E1,8.144563293E-1,8.905880127E0,5.613327026E-2,8.943220387E0
1.277410042E1,3.363505554E-1,8.802145844E0,4.860392761E-1,8.821969016E0
1.278415742E1,-1.576222229E-1,8.642128601E0,7.515870667E-1,8.676180879E0
1.279421542E1,-6.201603699E-1,8.483907623E0,8.357121277E-1,8.547496839E0
1.280427242E1,-1.023272095E0,8.403075714E0,6.863227844E-1,8.492926834E0
1.281432942E1,-1.376088409E0,8.207881622E0,4.152365112E-1,8.332788333E0
1.282438642E1,-1.425785065E0,7.943681030E0,1.766326904E-1,8.072554148E0
1.283444442E1,-1.292562103E0,7.832312622E0,4.191284180E-3,7.938252665E0
1.284450142E1,-1.094523926E0,7.729626160E0,9.370513916E-2,7.807296833E0
1.285455842E1,-6.842271423E-1,7.519612885E0,3.002755737E-1,7.556646752E0
1.286461642E1,-1.951940918E-1,7.336992645E0,3.460803223E-1,7.347743422E0
1.287467342E1,-5.703140259E-2,7.186705170E0,1.559756470E-1,7.188623803E0
1.288473042E1,-1.368154907E-1,7.075636139E0,-1.173559570E-1,7.077931737E0
1.289478742E1,-3.860472107E-1,7.015760651E0,-3.463796997E-1,7.034906457E0
1.290484542E1,-7.978408813E-1,7.129374390E0,-4.441264343E-1,7.187612785E0
1.291490242E1,-1.180145874E0,7.287745056E0,-6.474037170E-1,7.411012337E0
1.292495942E1,-1.519490204E0,7.501500549E0,-9.223818970E-1,7.709224950E0
1.293501742E1,-1.705553284E0,7.692503357E0,-1.087488556E0,7.954002216E0
1.294507442E1,-1.625619507E0,7.911497955E0,-1.092278595E0,8.150307430E0
1.295513142E1,-1.307381287E0,8.208480377E0,-8.672964478E-1,8.357068808E0
1.296518842E1,-8.696914673E-1,8.465795288E0,-6.758445740E-1,8.537143492E0
1.297524642E1,-3.067121887E-1,8.716673584E0,-4.363426208E-1,8.732975760E0
1.298530342E1,2.160008240E-1,9.104067993E0,2.305206299E-2,9.106659200E0
1.299536042E1,4.616400146E-1,9.490713959E0,4.846920776E-1,9.514288694E0
1.300541842E1,6.050418091E-1,9.936486969E0,7.806266785E-1,9.985450760E0
1.301547542E1,5.722599792E-1,1.027538223E1,7.574249268E-1,1.031914018E1
1.302553242E1,4.793032837E-1,1.052102142E1,3.760180664E-1,1.053864379E1
1.303558942E1,3.962260437E-1,1.075408676E1,-2.604583740E-2,1.076141513E1
1.304564742E1,2.562670898E-1,1.102307739E1,-3.845503235E-1,1.103275972E1
1.305570442E1,1.371148682E-1,1.141615997E1,-2.965333557E-1,1.142083364E1
1.306576142E1,1.360670471E-1,1.180475189E1,3.935316467E-1,1.181209332E1
1.307581842E1,2.104623413E-1,1.226743973E1,1.207688599E0,1.232853940E1
1.308587642E1,2.601589966E-1,1.269360352E1,2.041454773E0,1.285934643E1
1.309593342E1,2.630030823E-1,1.295735504E1,2.291884003E0,1.316111517E1
1.310599042E1,1.725910950E-1,1.303549255E1,1.751507721E0,1.315376878E1
1.311604854E1,-8.098159790E-2,1.307875259E1,8.149053955E-1,1.310436562E1
1.312610554E1,-1.794767761E-1,1.321197556E1,3.489244080E-1,1.321780081E1
1.313616254E1,-3.050656128E-1,1.338471634E1,6.524931335E-1,1.340408310E1
1.314621954E1,-4.821473694E-1,1.347722397E1,1.262923737E0,1.354485173E1
1.315627754E1,-7.042854309E-1,1.337334000E1,1.828597412E0,1.351613884E1
1.316633454E1,-9.003776550E-1,1.304731796E1,2.421215057E0,1.330058150E1
1.317639154E1,-8.425978088E-1,1.268716690E1,3.081042938E0,1.308308070E1
1.318644954E1,-6.872209167E-1,1.233165619E1,3.504212952E0,1.283828358E1
1.319650654E1,-6.078858948E-1,1.190444458E1,3.273842010E0,1.236136592E1
1.320656354E1,-7.535330200E-1,1.153007309E1,2.474055176E0,1.181657084E1
1.321662054E1,-9.565109253E-1,1.125344833E1,1.583556976E0,1.140450197E1
1.322667854E1,-1.159638519E0,1.099733093E1,8.752299500E-1,1.109288405E1
1.323673554E1,-1.419049072E0,1.084674408E1,5.948629761E-1,1.095533748E1
1.324679254E1,-1.587748260E0,1.080902252E1,6.236032104E-1,1.094279642E1
1.325684954E1,-1.634900208E0,1.073073532E1,7.535330200E-1,1.088068891E1
1.326690754E1,-1.589095459E0,1.053793625E1,1.020428009E0,1.070582076E1
1.327696454E1,-1.519340515E0,1.034124527E1,1.340612183E0,1.053788358E1
1.328702154E1,-1.387464752E0,1.009291168E1,1.528022461E0,1.030178515E1
1.329707954E1,-1.116378479E0,9.789043579E0,1.594633942E0,9.980708016E0
1.330713654E1,-7.854167175E-1,9.413175201E0,1.458417206E0,9.557809767E0
1.331719354E1,-4.815486145E-1,8.993448029E0,1.191971283E0,9.084866100E0
1.332725054E1,-1.252894592E-1,8.518036652E0,9.506730652E-1,8.571839075E0
1.333730854E1,2.776725769E-1,8.093818817E0,7.616162109E-1,8.134314007E0
1.334736554E1,5.376818848E-1,7.666307831E0,6.831793213E-1,7.715446296E0
1.335742254E1,7.018904114E-1,7.273824005E0,5.945635986E-1,7.331757748E0
1.336748054E1,7.776329041E-1,6.953041077E0,4.921765137E-1,7.013681691E0
1.337753754E1,7.029382324E-1,6.657405853E0,2.902464294E-1,6.700702787E0
1.338759454E1,5.719606018E-1,6.402485962E0,1.167572021E-1,6.429043293E0
1.339765154E1,4.011657715E-1,6.192772064E0,-7.634124756E-3,6.205756851E0
1.340770954E1,2.653981018E-1,6.068081360E0,-1.038839722E-1,6.074770730E0
1.341776654E1,1.640588379E-1,5.991590424E0,-2.279759216E-1,5.998170065E0
1.342782354E1,1.444496155E-1,5.903573456E0,-4.203259277E-1,5.920280325E0
1.343788054E1,1.414558411E-1,5.901777191E0,-5.556445312E-1,5.929563611E0
1.344793854E1,8.711883545E-2,6.006409607E0,-5.298980713E-1,6.030367984E0
1.345799554E1,1.523831177E-1,6.147566071E0,-4.984634399E-1,6.169623571E0
1.346805254E1,2.067201233E-1,6.329587555E0,-5.391787720E-1,6.355873313E0
1.347811054E1,2.317181396E-1,6.577023010E0,-4.358935547E-1,6.595523343E0
1.348816754E1,1.815724182E-1,6.865622864E0,-2.854563904E-1,6.873953099E0
1.349822454E1,1.939965820E-1,7.219936066E0,-3.421884155E-1,7.230643428E0
1.350828154E1,2.068698120E-1,7.615263977E0,-5.131329346E-1,7.635335354E0
1.351833954E1,1.688488770E-1,8.035739594E0,-5.239105225E-1,8.054570317E0
1.352839654E1,9.759704590E-2,8.541837158E0,-3.489244080E-1,8.549517850E0
1.353845354E1,5.328918457E-2,9.104816437E0,-8.292755127E-2,9.105350024E0
1.354851154E1,5.418731689E-2,9.626182251E0,1.911524963E-1,9.628232458E0
1.355856854E1,1.511856079E-1,1.011835876E1,3.379971313E-1,1.012513127E1
1.356862554E1,1.113684082E-1,1.060828995E1,3.715274048E-1,1.061537805E1
1.357868254E1,5.194198608E-2,1.116034195E1,3.555107117E-1,1.116612369E1
1.358874054E1,1.092727661E-2,1.175086395E1,4.734654236E-1,1.176040359E1
1.359879754E1,4.849914551E-2,1.221639587E1,7.668553162E-1,1.224053705E1
1.360885454E1,1.450483704E-1,1.264121246E1,1.153501282E0,1.269456013E1
1.361891254E1,2.912942505E-1,1.307710602E1,1.560953979E0,1.317315951E1
1.362896954E1,3.724255371E-1,1.344893280E1,1.924398193E0,1.359101919E1
1.363902654E1,2.992277527E-1,1.378139145E1,2.125280457E0,1.394751249E1
1.364908354E1,9.445358276E-2,1.398601593E1,2.165097656E0,1.415292235E1
1.365914154E1,-1.733395386E-1,1.398751282E1,1.880090332E0,1.411436506E1
1.366919854E1,-5.159770203E-1,1.408106827E1,1.375938721E0,1.415753945E1
1.367925554E1,-7.553292847E-1,1.422521851E1,1.025966492E0,1.428215569E1
1.368931254E1,-6.189628601E-1,1.427461578E1,1.302441559E0,1.434726890E1
1.369937054E1,-2.025288391E-1,1.420530991E1,2.113754425E0,1.436314051E1
1.370942754E1,1.309776306E-1,1.392344604E1,2.953657837E0,1.423388912E1
1.371948454E1,3.972738647E-1,1.347916992E1,3.526666260E0,1.393855169E1
1.372954254E1,7.174580383E-1,1.289628204E1,3.708687744E0,1.343812492E1
1.373959954E1,8.801696777E-1,1.236847961E1,3.520678711E0,1.288988616E1
1.374965654E1,8.461903381E-1,1.188558380E1,2.908152466E0,1.226541851E1
1.375971354E1,7.587721252E-1,1.144624741E1,2.163002014E0,1.167351243E1
1.376977154E1,6.348298645E-1,1.101200043E1,1.405427399E0,1.111945990E1
1.377982854E1,4.797523499E-1,1.066038162E1,7.634124756E-1,1.069844368E1
1.378988554E1,3.258723450E-1,1.034049683E1,3.968247986E-1,1.035323801E1
1.379994354E1,2.189945984E-1,1.011611343E1,2.460882568E-1,1.012147564E1
1.381000054E1,1.306782532E-1,9.925410004E0,3.302133179E-1,9.931761243E0
1.382005754E1,1.106199646E-1,9.764045563E0,6.081852722E-1,9.783594015E0
1.383011454E1,8.921447754E-2,9.617500305E0,9.388476562E-1,9.663628007E0
1.384017254E1,8.008346558E-2,9.510921936E0,1.252295837E0,9.593346356E0
1.385022954E1,1.101708984E-1,9.360484772E0,1.539997559E0,9.486959748E0
1.386028654E1,2.218386841E-1,9.105714569E0,1.747316437E0,9.274500792E0
1.387034454E1,3.059637451E-1,8.738079071E0,1.818418579E0,8.930525505E0
1.388040154E1,3.860472107E-1,8.243507538E0,1.750908966E0,8.436239161E0
1.389045854E1,2.856060791E-1,7.785460052E0,1.570534058E0,7.947423248E0
1.390051554E1,1.115180969E-1,7.366631012E0,1.333277435E0,7.487143479E0
1.391057354E1,-7.903564453E-2,7.022796021E0,1.090781708E0,7.107440841E0
1.392063054E1,-3.611988831E-1,6.747069397E0,8.310717773E-1,6.807649402E0
1.393068754E1,-6.700067139E-1,6.534511414E0,5.454656982E-1,6.591379312E0
1.394074454E1,-9.123527527E-1,6.371500397E0,3.423381042E-1,6.445587656E0
1.395080254E1,-1.038690033E0,6.208040314E0,1.553768921E-1,6.296251544E0
1.396085954E1,-1.127006378E0,6.100563812E0,-1.734892273E-1,6.206216296E0
1.397091654E1,-1.169967041E0,6.059100037E0,-4.108955383E-1,6.184686837E0
1.398097454E1,-1.171463928E0,6.088289337E0,-4.486170959E-1,6.216176645E0
1.399103154E1,-1.174607391E0,6.124214630E0,-4.360432434E-1,6.251067194E0
1.400108854E1,-1.103654938E0,6.222111053E0,-4.808001709E-1,6.337498638E0
1.401114554E1,-1.043330383E0,6.336622925E0,-4.400848389E-1,6.437002644E0
1.402120354E1,-1.035696259E0,6.517446899E0,-3.360511780E-1,6.607776572E0
1.403126054E1,-1.119222565E0,6.736441498E0,-3.589535522E-1,6.838212548E0
1.404131754E1,-1.197060699E0,7.021748199E0,-4.384382629E-1,7.136534888E0
1.405137554E1,-1.175056458E0,7.392078094E0,-5.218148804E-1,7.503057177E0
1.406143254E1,-1.161734161E0,7.815248108E0,-5.379812622E-1,7.919416209E0
1.407148954E1,-1.134041748E0,8.226293335E0,-5.074447632E-1,8.319582496E0
1.408154654E1,-1.121018829E0,8.735833740E0,-4.014651489E-1,8.816612083E0
1.409160454E1,-1.064735870E0,9.255103912E0,-1.737886047E-1,9.317768691E0
1.410166154E1,-9.403445435E-1,9.817035370E0,1.465452576E-1,9.863057681E0
1.411171854E1,-8.173004150E-1,1.039633072E1,3.897894287E-1,1.043568916E1
1.412177592E1,-7.887098694E-1,1.104627914E1,5.510041809E-1,1.108809956E1
1.413183392E1,-6.987469482E-1,1.170880142E1,7.807763672E-1,1.175558972E1
1.414189092E1,-6.908134460E-1,1.223944794E1,1.098415833E0,1.230803909E1
1.415194792E1,-5.222639465E-1,1.266830612E1,1.578018494E0,1.277688859E1
1.416200592E1,-1.276844788E-1,1.305315582E1,2.277663574E0,1.325099738E1
1.417206292E1,2.856060791E-1,1.332963089E1,3.007845154E0,1.366776364E1
1.418211992E1,7.762857056E-1,1.345252533E1,3.509901123E0,1.392452739E1
1.419217692E1,1.090781708E0,1.336570587E1,3.445534973E0,1.384570726E1
1.420223492E1,8.384065247E-1,1.325628342E1,2.548600159E0,1.352506334E1
1.421229192E1,1.407073975E-1,1.335088669E1,1.347647552E0,1.341946824E1
1.422234892E1,-3.309617615E-1,1.351749023E1,6.532415771E-1,1.353731149E1
1.423240692E1,-7.667056274E-1,1.366942429E1,5.405259705E-1,1.370157532E1
1.424246392E1,-1.196312256E0,1.372495880E1,9.779164124E-1,1.381166093E1
1.425252092E1,-1.457369385E0,1.367166962E1,1.689985657E0,1.385260001E1
1.426257792E1,-1.537303162E0,1.338666229E1,2.600242767E0,1.372323908E1
1.427263592E1,-1.224304047E0,1.295151718E1,3.575913849E0,1.349177073E1
1.428269292E1,-7.382647705E-1,1.245335312E1,4.077071686E0,1.312454008E1
1.429274992E1,-4.055067444E-1,1.186357956E1,3.902534637E0,1.249554850E1
1.430280692E1,-3.887416077E-1,1.132664612E1,2.944526825E0,1.170958029E1
1.431286492E1,-6.649172974E-1,1.086560486E1,1.731299744E0,1.102274388E1
1.432292192E1,-8.225395203E-1,1.061816940E1,6.987469482E-1,1.067287871E1
1.433297892E1,-1.012644196E0,1.044108765E1,-1.707948303E-1,1.049146941E1
1.434303692E1,-1.098864899E0,1.037402710E1,-5.560935974E-1,1.044687429E1
1.435309392E1,-1.006207581E0,1.026819717E1,-3.695814514E-1,1.032399716E1
1.436315092E1,-7.620652771E-1,1.019350250E1,2.210902405E-1,1.022433947E1
1.437320792E1,-5.499563599E-1,1.010129425E1,1.031504974E0,1.016870690E1
1.438326592E1,-3.969744873E-1,9.989925842E0,1.735790405E0,1.014737283E1
1.439332292E1,-3.258723450E-1,9.762099609E0,2.288890228E0,1.003213836E1
1.440337992E1,-2.219883728E-1,9.527537384E0,2.511627045E0,9.855532348E0
1.441343792E1,-3.562591553E-2,9.167386322E0,2.455044708E0,9.490494492E0
1.442349492E1,1.392105103E-1,8.773405609E0,2.207309875E0,9.047886075E0
1.443355192E1,2.562670898E-1,8.299191742E0,1.866468658E0,8.510344390E0
1.444360892E1,3.492237854E-1,7.815547485E0,1.515149231E0,7.968714886E0
1.445366692E1,4.737648010E-1,7.304659882E0,1.154100037E0,7.410428865E0
1.446372392E1,5.785469055E-1,6.809639282E0,8.981323242E-1,6.892934451E0
1.447378092E1,7.072792053E-1,6.369105377E0,7.138655090E-1,6.447895094E0
1.448383892E1,7.671546936E-1,5.971831512E0,4.923262024E-1,6.041000168E0
1.449389592E1,7.909552002E-1,5.633834381E0,1.642085266E-1,5.691455385E0
1.450395292E1,6.867718506E-1,5.416037292E0,-2.091151428E-1,5.463409620E0
1.451400992E1,5.496569824E-1,5.234464874E0,-4.894821167E-1,5.285956684E0
1.452406792E1,4.049079895E-1,5.167703705E0,-6.803352356E-1,5.227998479E0
1.453412492E1,2.495310974E-1,5.168302460E0,-8.857081604E-1,5.249580462E0
1.454418192E1,1.558259583E-1,5.209766235E0,-1.015937347E0,5.310185934E0
1.455423892E1,1.627116394E-1,5.347779236E0,-1.027613068E0,5.448046113E0
1.456429692E1,2.469863892E-1,5.500611420E0,-9.340576172E-1,5.584817983E0
1.457435392E1,3.781137085E-1,5.705535278E0,-8.725355530E-1,5.784239023E0
1.458441092E1,4.345463562E-1,6.036646729E0,-9.131011963E-1,6.120758781E0
1.459446892E1,3.641926575E-1,6.431226196E0,-9.897418213E-1,6.517123257E0
1.460452592E1,2.478845215E-1,6.848258972E0,-1.032103729E0,6.930031442E0
1.461458292E1,5.433700562E-2,7.391778717E0,-9.901908875E-1,7.458003963E0
1.462463992E1,-6.331832886E-2,7.940088501E0,-8.794212341E-1,7.988892058E0
1.463469792E1,-1.019380188E-1,8.487799530E0,-6.333329773E-1,8.512005808E0
1.464475492E1,-1.863624573E-1,9.142238617E0,-5.385800171E-1,9.159985062E0
1.465481192E1,-2.721340942E-1,9.835297394E0,-5.891748047E-1,9.856685992E0
1.466486992E1,-3.665876770E-1,1.057101746E1,-6.310876465E-1,1.059618177E1
1.467492692E1,-3.996688843E-1,1.128338608E1,-5.813909912E-1,1.130542136E1
1.468498392E1,-1.920506287E-1,1.206116867E1,-3.882925415E-1,1.206894545E1
1.469504092E1,2.571652222E-1,1.281245636E1,9.295669556E-2,1.281537408E1
1.470509892E1,7.876620483E-1,1.341525284E1,7.940986633E-1,1.346179828E1
1.471515592E1,1.235680389E0,1.383228561E1,1.845512238E0,1.400945919E1
1.472521292E1,1.453327789E0,1.408031982E1,2.965333557E0,1.446239161E1
1.473526992E1,1.350042572E0,1.415396667E1,3.684587860E0,1.468787171E1
1.474532792E1,9.000782776E-1,1.416758835E1,3.456611938E0,1.461091601E1
1.475538492E1,1.528321838E-1,1.412582520E1,2.492616577E0,1.434487478E1
1.476544192E1,-4.261637878E-1,1.400742142E1,1.404379578E0,1.408409572E1
1.477549992E1,-6.851252747E-1,1.409483963E1,5.325924683E-1,1.412152809E1
1.478555692E1,-7.087760925E-1,1.400173325E1,4.481680298E-1,1.402682259E1
1.479561392E1,-1.516346741E-1,1.374052643E1,1.009650421E0,1.377840533E1
1.480567092E1,5.387297058E-1,1.322904007E1,1.653611298E0,1.334286930E1
1.481572892E1,9.675878906E-1,1.271949966E1,2.104623413E0,1.292870209E1
1.482578592E1,1.225651245E0,1.225277023E1,2.289339294E0,1.252492211E1
1.483584292E1,1.391955414E0,1.187271057E1,2.304757233E0,1.217418178E1
1.484590092E1,1.462309113E0,1.151495453E1,2.192939758E0,1.181276896E1
1.485595792E1,1.455423431E0,1.116153946E1,1.960473175E0,1.142548360E1
1.486601492E1,1.333876190E0,1.083881058E1,1.569037170E0,1.103272034E1
1.487607192E1,1.160536652E0,1.053194870E1,1.131347351E0,1.065592490E1
1.488612992E1,1.043180695E0,1.025831772E1,7.819738770E-1,1.034083128E1
1.489618692E1,9.827064514E-1,1.004486160E1,5.168751526E-1,1.010604356E1
1.490624392E1,9.690847778E-1,9.890382843E0,4.085005188E-1,9.946138485E0
1.491630092E1,9.375004578E-1,9.771679688E0,4.757107544E-1,9.828068566E0
1.492635892E1,8.887019348E-1,9.777068481E0,7.212002563E-1,9.843829998E0
1.493641592E1,7.270381165E-1,9.787397003E0,1.081800385E0,9.873804565E0
1.494647292E1,6.731501770E-1,9.786798248E0,1.553768921E0,9.932207659E0
1.495653092E1,6.804849243E-1,9.704020386E0,1.987267456E0,9.928761419E0
1.496658792E1,7.186555481E-1,9.526938629E0,2.251318359E0,9.815674190E0
1.497664492E1,7.113208008E-1,9.239087219E0,2.395169220E0,9.570974115E0
1.498670192E1,5.725593567E-1,8.827592926E0,2.283501434E0,9.136115142E0
1.499675992E1,2.665956116E-1,8.412356415E0,2.013462982E0,8.654065337E0
1.500681692E1,-8.262817383E-2,8.001909943E0,1.534758453E0,8.148182230E0
1.501687392E1,-5.391787720E-1,7.614515533E0,1.031205597E0,7.702917989E0
1.502693192E1,-8.584648132E-1,7.281009064E0,5.689668274E-1,7.353487477E0
1.503698892E1,-1.064586182E0,6.958429871E0,2.158511353E-1,7.042704148E0
1.504704592E1,-1.188229065E0,6.668482819E0,-1.022373962E-1,6.774289918E0
1.505710292E1,-1.191522217E0,6.450985107E0,-3.219804382E-1,6.567998588E0
1.506716092E1,-1.158141632E0,6.288872223E0,-4.902305603E-1,6.413386927E0
1.507721792E1,-1.119072876E0,6.166127472E0,-6.698570251E-1,6.302551907E0
1.508727492E1,-1.091679840E0,6.160439301E0,-7.744894409E-1,6.304174105E0
1.509733292E1,-1.068478088E0,6.206693115E0,-8.247848511E-1,6.351767856E0
1.510738992E1,-1.064586182E0,6.321953430E0,-8.240364075E-1,6.463704426E0
1.511744629E1,-1.096619568E0,6.499484253E0,-7.566764832E-1,6.634638598E0
1.512750329E1,-1.108594666E0,6.727909241E0,-7.487429810E-1,6.859618133E0
1.513756129E1,-1.036744080E0,7.012916565E0,-5.983058167E-1,7.114338120E0
1.514761829E1,-9.136999512E-1,7.320227509E0,-4.492158508E-1,7.390695046E0
1.515767529E1,-9.249266052E-1,7.682773590E0,-2.674937439E-1,7.742871054E0
1.516773229E1,-8.810678101E-1,8.085286560E0,-2.948867798E-2,8.133204093E0
1.517779029E1,-9.404942322E-1,8.529862061E0,4.281097412E-2,8.581661200E0
1.518784729E1,-9.857002258E-1,9.024732971E0,6.137237549E-2,9.078610946E0
1.519790429E1,-9.497749329E-1,9.484876099E0,1.181044006E-1,9.533042310E0
1.520796229E1,-9.210346985E-1,9.989177399E0,1.290316772E-1,1.003237854E1
1.521801929E1,-8.834628296E-1,1.051772827E1,1.805245972E-1,1.055631108E1
1.522807629E1,-9.274713135E-1,1.098790054E1,3.022215271E-1,1.103111505E1
1.523813329E1,-9.083111572E-1,1.150282974E1,5.807922363E-1,1.155324374E1
1.524819129E1,-9.984237671E-1,1.190743835E1,9.092092896E-1,1.198376400E1
1.525824829E1,-1.111887817E0,1.236054611E1,1.170865173E0,1.246556537E1
1.526830529E1,-1.056802368E0,1.264899628E1,1.675316162E0,1.280314892E1
1.527836329E1,-9.916877747E-1,1.285856049E1,2.344873810E0,1.310818277E1
1.528842029E1,-7.643106079E-1,1.297876053E1,2.846031647E0,1.330910559E1
1.529847729E1,-5.733078003E-1,1.300091446E1,2.697989502E0,1.329028239E1
1.530853429E1,-5.858816528E-1,1.296573761E1,1.792971497E0,1.310222713E1
1.531859229E1,-5.798941040E-1,1.296304321E1,6.092330933E-1,1.299030144E1
1.532864929E1,-5.695655823E-1,1.305285645E1,-1.237925720E-1,1.306586357E1
1.533870629E1,-4.367916870E-1,1.309776306E1,-5.792953491E-2,1.310517226E1
1.534876329E1,-2.130070496E-1,1.315329758E1,3.884422302E-1,1.316075592E1
1.535882129E1,-1.206491089E-1,1.300570450E1,1.053958282E0,1.304889780E1
1.536887829E1,-1.616638184E-2,1.274943741E1,1.807042236E0,1.287687141E1
1.537893529E1,1.580712891E-1,1.244077927E1,2.682421875E0,1.272766131E1
1.538899329E1,3.050656128E-1,1.210188400E1,3.330274658E0,1.255545263E1
1.539905029E1,2.724334717E-1,1.165117126E1,3.456462250E0,1.215611546E1
1.540910729E1,9.624984741E-2,1.117082016E1,2.997666321E0,1.156643811E1
1.541916429E1,-1.643582153E-1,1.070888077E1,2.040107574E0,1.090271433E1
1.542922229E1,-5.011578369E-1,1.039049286E1,1.034349060E0,1.045386909E1
1.543927929E1,-7.532336426E-1,1.009111542E1,2.380050659E-1,1.012198685E1
1.544933629E1,-8.119116211E-1,9.893975372E0,-1.360670471E-1,9.928165157E0
1.545939429E1,-7.867639160E-1,9.793983307E0,-2.380050659E-2,9.825562220E0
1.546945129E1,-6.872209167E-1,9.651180267E0,4.327500916E-1,9.685289143E0
1.547950829E1,-5.596861267E-1,9.542805634E0,9.595046997E-1,9.607238791E0
1.548956529E1,-5.349874878E-1,9.445657654E0,1.472487946E0,9.574700041E0
1.549962329E1,-6.279441833E-1,9.357191620E0,1.885778503E0,9.565955753E0
1.550968029E1,-6.653663635E-1,9.242829437E0,2.090552673E0,9.499632566E0
1.551973729E1,-5.959107971E-1,8.990154877E0,2.106120300E0,9.252769159E0
1.552979529E1,-4.569996643E-1,8.791517944E0,2.048190765E0,9.038513256E0
1.553985229E1,-2.399510193E-1,8.425529022E0,1.821112976E0,8.623431351E0
1.554990929E1,-2.559677124E-2,8.073610840E0,1.500030670E0,8.211817046E0
1.555996629E1,2.151026917E-1,7.812703400E0,1.310375061E0,7.924751503E0
1.557002429E1,3.896397400E-1,7.473508759E0,1.111438751E0,7.565741761E0
1.558008129E1,4.858895874E-1,7.190896454E0,8.593629456E-1,7.258345898E0
1.559013829E1,5.060975647E-1,6.931036835E0,5.489085388E-1,6.971133834E0
1.560019529E1,4.658312988E-1,6.692882080E0,2.173480225E-1,6.712593351E0
1.561025329E1,5.304968262E-1,6.522835693E0,-1.216969299E-1,6.545503992E0
1.562031029E1,5.399272156E-1,6.416856079E0,-5.291496277E-1,6.461235382E0
1.563036729E1,5.580395508E-1,6.404731293E0,-7.653584290E-1,6.474392991E0
1.564042529E1,5.448669434E-1,6.457272034E0,-9.484277344E-1,6.549256238E0
1.565048229E1,4.605921936E-1,6.586752777E0,-1.171763306E0,6.706003770E0
1.566053929E1,3.731739807E-1,6.777007141E0,-1.343156891E0,6.918898398E0
1.567059629E1,2.606080627E-1,7.032376099E0,-1.434167633E0,7.181856790E0
1.568065429E1,1.456471252E-1,7.371870117E0,-1.356179810E0,7.496993116E0
1.569071129E1,1.326242065E-1,7.733817444E0,-1.049018555E0,7.805764624E0
1.570076829E1,1.028361511E-1,8.101902008E0,-5.882766724E-1,8.123882130E0
1.571082629E1,8.113128662E-2,8.520581360E0,-1.410067749E-1,8.522134234E0
1.572088329E1,2.844085693E-3,8.927884369E0,1.764830017E-1,8.929628976E0
1.573094029E1,-4.535568237E-2,9.257498932E0,3.162922668E-1,9.263011627E0
1.574099729E1,-1.457968140E-1,9.531129913E0,3.520678711E-1,9.538744463E0
1.575105529E1,-2.025288391E-1,9.858499146E0,2.439926147E-1,9.863597504E0
1.576111229E1,-2.894979858E-1,1.016236725E1,-8.891510010E-2,1.016687873E1
1.577116929E1,-3.186872864E-1,1.054557037E1,-5.707630920E-1,1.056581216E1
1.578122729E1,-3.438349915E-1,1.099792969E1,-9.409432983E-1,1.104346206E1
1.579128429E1,-4.191284180E-1,1.144609772E1,-9.590556335E-1,1.149385093E1
1.580134129E1,-3.556604004E-1,1.190504333E1,-5.909710693E-1,1.192500725E1
1.581139829E1,-2.130070496E-1,1.230860413E1,1.944456482E-1,1.231198264E1
1.582145629E1,1.437011719E-2,1.258193573E1,1.288670197E0,1.264776597E1
1.583151329E1,3.082090759E-1,1.273042694E1,2.110910339E0,1.290793188E1
1.584157029E1,4.668791199E-1,1.282009048E1,2.076032867E0,1.299548416E1
1.585162729E1,2.589614868E-1,1.278162048E1,1.256487122E0,1.284584147E1
1.586168529E1,-7.095245361E-2,1.283296371E1,3.568579102E-1,1.283812056E1
1.587174229E1,-5.254074097E-2,1.303369629E1,-1.758842468E-1,1.303498887E1
1.588179929E1,2.103126526E-1,1.318817505E1,-1.716929626E-1,1.319096930E1
1.589185729E1,4.656816101E-1,1.317111053E1,2.094145203E-1,1.318100400E1
1.590191429E1,6.007008362E-1,1.301273987E1,6.465055847E-1,1.304263048E1
1.591197129E1,7.610174561E-1,1.285047729E1,9.746232605E-1,1.290983365E1
1.592202829E1,1.096469879E0,1.261172379E1,1.341809692E0,1.273021116E1
1.593208629E1,1.560205536E0,1.245125748E1,1.784738617E0,1.267491010E1
1.594214329E1,1.890269165E0,1.224603424E1,2.138902130E0,1.257431408E1
1.595220029E1,2.191891937E0,1.187645279E1,2.418670349E0,1.231683756E1
1.596225829E1,2.364483032E0,1.144834305E1,2.426603851E0,1.193916851E1
1.597231529E1,2.364333344E0,1.098505646E1,2.109712830E0,1.143295350E1
1.598237229E1,2.185155945E0,1.057940002E1,1.503174133E0,1.090679347E1
1.599242929E1,1.942360840E0,1.036968613E1,5.770500183E-1,1.056580062E1
1.600248729E1,1.647174683E0,1.017389328E1,-2.401007080E-1,1.030916763E1
1.601254429E1,1.505569153E0,1.011431717E1,-7.773335266E-1,1.025526195E1
1.602260129E1,1.430874481E0,1.000773880E1,-9.247769165E-1,1.015172153E1
1.603265829E1,1.403331757E0,9.847721558E0,-6.972500610E-1,9.971615593E0
1.604271629E1,1.412013702E0,9.760153656E0,-2.185455322E-1,9.864184925E0
1.605277329E1,1.442999268E0,9.658814392E0,3.543132019E-1,9.772434712E0
1.606283029E1,1.557511139E0,9.446855164E0,1.046024780E0,9.631359264E0
1.607288829E1,1.639540558E0,9.168434143E0,1.445244598E0,9.425338711E0
1.608294529E1,1.566193085E0,8.793463898E0,1.517993317E0,9.059926700E0
1.609300229E1,1.368454285E0,8.427624664E0,1.460063782E0,8.661946136E0
1.610305929E1,1.094374237E0,8.012837219E0,1.207688599E0,8.176902043E0
1.611311729E1,6.698570251E-1,7.658074951E0,8.337661743E-1,7.732398491E0
1.612317421E1,2.827619934E-1,7.341632996E0,5.023553467E-1,7.364230461E0
1.613323121E1,-8.532257080E-2,7.075336761E0,1.035845947E-1,7.076609357E0
1.614328921E1,-3.614982605E-1,6.885381775E0,-2.727328491E-1,6.900256980E0
1.615334621E1,-4.314028931E-1,6.684948578E0,-4.821473694E-1,6.716182847E0
1.616340321E1,-4.086502075E-1,6.624174957E0,-4.860392761E-1,6.654541535E0
1.617346021E1,-3.631448364E-1,6.531517639E0,-5.369334412E-1,6.563603763E0
1.618351821E1,-1.904040527E-1,6.451883240E0,-5.363346863E-1,6.476936462E0
1.619357521E1,-9.654922485E-2,6.458319855E0,-5.849835205E-1,6.485477840E0
1.620363221E1,8.981323242E-3,6.504423981E0,-8.110134888E-1,6.554796325E0
1.621368921E1,1.143621826E-1,6.584208069E0,-9.583071899E-1,6.654564394E0
1.622374721E1,1.859133911E-1,6.662644958E0,-1.164278870E0,6.766161905E0
1.623380421E1,1.911524963E-1,6.809040527E0,-1.352736969E0,6.944744019E0
1.624386121E1,1.775308228E-1,7.029532013E0,-1.451232147E0,7.179966035E0
1.625391921E1,1.197509766E-1,7.287295990E0,-1.600920868E0,7.462035297E0
1.626397621E1,3.712280273E-2,7.531737671E0,-1.693129120E0,7.719788641E0
1.627403321E1,-3.502716064E-2,7.772736511E0,-1.548080750E0,7.925478773E0
1.628409021E1,-1.284329224E-1,8.079448700E0,-1.118174744E0,8.157469036E0
1.629414821E1,-2.113604736E-1,8.366401978E0,-7.042854309E-1,8.398653063E0
1.630420521E1,-2.471360779E-1,8.740324402E0,-6.294410706E-1,8.766444145E0
1.631426221E1,-2.938389587E-1,9.112001495E0,-7.340734863E-1,9.146243845E0
1.632432021E1,-2.782713318E-1,9.545500031E0,-8.159532166E-1,9.584351069E0
1.633437721E1,-2.537223816E-1,9.988878021E0,-7.530839539E-1,1.002043884E1
1.634443421E1,-3.441343689E-1,1.051413574E1,-6.637197876E-1,1.054068322E1
1.635449121E1,-4.179309082E-1,1.094958023E1,-4.601431274E-1,1.096721046E1
1.636454921E1,-4.170327759E-1,1.132544861E1,-9.654922485E-2,1.133353538E1
1.637460621E1,-3.258723450E-1,1.161599442E1,4.212240601E-1,1.162819628E1
1.638466321E1,2.035766602E-2,1.190085205E1,1.055904236E0,1.194762017E1
1.639472121E1,3.594026184E-1,1.220741455E1,1.326092377E0,1.228448864E1
1.640477821E1,4.508624268E-1,1.245470032E1,1.161285095E0,1.251684545E1
1.641483521E1,3.131488037E-1,1.285571640E1,5.333409119E-1,1.287058502E1
1.642489221E1,-5.239105225E-3,1.324191330E1,-2.151026917E-1,1.324366129E1
1.643495021E1,-2.248324585E-1,1.354982300E1,-5.059478760E-1,1.356112961E1
1.644500721E1,-1.621128845E-1,1.395832352E1,6.780899048E-2,1.395942957E1
1.645506421E1,1.362167358E-2,1.417043243E1,1.434616699E0,1.424287422E1
1.646512121E1,2.890489197E-1,1.402688095E1,3.071163483E0,1.436206753E1
1.647517921E1,5.191204834E-1,1.359293335E1,4.523593140E0,1.433527879E1
1.648523621E1,7.840695190E-1,1.269150787E1,5.281317444E0,1.376885802E1
1.649529321E1,1.166224823E0,1.165521286E1,4.946164398E0,1.271489714E1
1.650535121E1,1.329086151E0,1.092428284E1,3.549269257E0,1.156303324E1
1.651540821E1,1.063388672E0,1.053419403E1,1.590292969E0,1.070649668E1
1.652546521E1,8.150550842E-1,1.050081345E1,-5.703140259E-2,1.053255194E1
1.653552221E1,8.428971863E-1,1.066098038E1,-1.098116455E0,1.075048083E1
1.654558021E1,8.309220886E-1,1.090377548E1,-1.576970673E0,1.104851066E1
1.655563721E1,8.809181213E-1,1.113564331E1,-1.595532074E0,1.128380660E1
1.656569421E1,1.069525909E0,1.132874176E1,-1.260528717E0,1.144872081E1
1.657575221E1,1.327439575E0,1.143427231E1,-6.107299805E-1,1.152725770E1
1.658580921E1,1.442699890E0,1.150791916E1,3.323089600E-1,1.160275896E1
1.659586621E1,1.492097168E0,1.156929153E1,1.253044281E0,1.173221976E1
1.660592321E1,1.437311096E0,1.144924118E1,1.769470367E0,1.167398870E1
1.661598121E1,1.432820435E0,1.118219650E1,1.985171814E0,1.144706950E1
1.662603821E1,1.485510864E0,1.083072739E1,1.957778778E0,1.110604772E1
