"Time (s)","Acceleration x (m/s^2)","Acceleration y (m/s^2)","Acceleration z (m/s^2)","Absolute acceleration (m/s^2)"
3.005833132E-4,-3.537294159E0,5.180576935E0,5.735772400E0,8.499994845E0
1.035758329E-2,-3.989952850E0,5.134023743E0,5.136718140E0,8.286362096E0
2.041458327E-2,-4.086651764E0,4.941673737E0,5.602250061E0,8.515049483E0
3.047158325E-2,-3.940106506E0,4.679868164E0,6.337820435E0,8.808721427E0
4.052858334E-2,-3.618425446E0,4.543052673E0,7.238347778E0,9.280409951E0
5.058558332E-2,-3.213667145E0,4.509223022E0,8.332572327E0,1.000462445E1
6.064158329E-2,-2.678979034E0,4.517156525E0,9.248966675E0,1.063602446E1
7.069858327E-2,-2.163900146E0,4.547094269E0,9.779762878E0,1.100010419E1
8.075558324E-2,-1.788929901E0,4.651277618E0,1.010069550E1,1.126315689E1
9.081258334E-2,-1.669627991E0,4.691693573E0,1.031385223E1,1.145317398E1
1.008695833E-1,-1.744322662E0,4.582720184E0,1.014829651E1,1.127084326E1
1.109265833E-1,-1.912872162E0,4.413571930E0,9.696236572E0,1.082384870E1
1.209835833E-1,-2.087109833E0,4.233197021E0,9.153764648E0,1.029890245E1
1.310405832E-1,-2.300416260E0,4.178560638E0,8.644224243E0,9.872937594E0
1.410975833E-1,-2.377356262E0,4.278552704E0,8.231682129E0,9.576973776E0
1.511535833E-1,-2.195185089E0,4.416266327E0,7.917635193E0,9.327979036E0
1.612105833E-1,-1.984872437E0,4.620142365E0,7.936645660E0,9.395519059E0
1.712675833E-1,-1.891316986E0,4.813540192E0,8.233328705E0,9.722908550E0
1.813245832E-1,-1.912423096E0,4.532275085E0,8.536598053E0,9.852531952E0
1.913815833E-1,-1.201701050E0,4.075874176E0,8.905880127E0,9.867701685E0
2.014385833E-1,-4.236190796E-1,3.717369690E0,9.056317291E0,9.798733256E0
2.114955833E-1,-1.420545959E-1,3.956123199E0,9.206155701E0,1.002119719E1
2.215525833E-1,-9.460327148E-2,4.980592804E0,9.104367371E0,1.037809037E1
2.316095833E-1,-1.166973267E0,5.254523163E0,9.241482239E0,1.069471057E1
2.416655833E-1,-1.603315887E0,3.883075104E0,9.251361694E0,1.016054070E1
2.517225833E-1,-1.391955414E0,3.132086792E0,9.292376404E0,9.904330708E0
2.617795833E-1,-1.314865723E0,3.216361542E0,9.171128540E0,9.807316255E0
2.718365833E-1,-1.137035522E0,3.864064636E0,9.157207489E0,1.000391395E1
2.818935832E-1,-1.230740662E0,4.221072235E0,9.148226166E0,1.014998598E1
2.919505833E-1,-1.120420074E0,4.171225891E0,9.248517609E0,1.020732798E1
3.020075833E-1,-7.188052368E-1,4.178560638E0,9.500443726E0,1.040362826E1
3.120645833E-1,-4.852908325E-1,4.256398773E0,9.556576996E0,1.047285069E1
3.221215833E-1,-4.965174866E-1,4.265829163E0,9.321416016E0,1.026316835E1
3.321775832E-1,-4.822970581E-1,4.078867950E0,8.580606537E0,9.512969187E0
3.422345833E-1,-4.763095093E-1,3.776646423E0,7.652985535E0,8.547404082E0
3.522915833E-1,-2.200424194E-1,3.644171906E0,7.324568481E0,8.183991140E0
3.623485833E-1,3.761677551E-1,3.861070862E0,7.565267944E0,8.501920339E0
3.724055833E-1,8.738827515E-1,3.831582184E0,7.855364685E0,8.783589667E0
3.824625832E-1,1.170715485E0,3.563789062E0,7.921826477E0,8.765072844E0
3.925195833E-1,1.250798950E0,3.394940186E0,7.632927246E0,8.446993265E0
4.025765833E-1,5.541476440E-1,3.439996490E0,7.169191589E0,7.971070412E0
4.126325833E-1,6.167175293E-2,3.817062378E0,7.018904114E0,7.989917619E0
4.226895833E-1,2.839595032E-1,3.816014557E0,6.567592621E0,7.601044200E0
4.327465832E-1,6.921606445E-1,3.935466156E0,5.971083069E0,7.184762574E0
4.428035833E-1,7.429051208E-1,4.104315033E0,5.853278046E0,7.187362088E0
4.528605833E-1,-3.532653809E-2,4.114793243E0,5.780080261E0,7.095216644E0
4.629175833E-1,-9.157955933E-1,4.541256409E0,5.537883911E0,7.220100384E0
4.729745833E-1,-1.806892548E0,4.752018127E0,5.537734222E0,7.517515366E0
4.830315833E-1,-2.750829620E0,4.480482788E0,5.534291382E0,7.633490074E0
4.930885833E-1,-3.457809448E0,4.408332825E0,5.292394409E0,7.707093035E0
5.031455833E-1,-3.837719421E0,4.577032013E0,4.612059174E0,7.546416515E0
5.132015833E-1,-4.383634186E0,4.766238556E0,4.040547638E0,7.632778253E0
5.232585833E-1,-5.406008148E0,4.884492645E0,3.777843933E0,8.207027311E0
5.333155832E-1,-6.532415771E0,5.188660126E0,3.608845367E0,9.089467234E0
5.433725833E-1,-7.259453888E0,5.678291931E0,3.377725983E0,9.815890322E0
5.534295833E-1,-7.437134399E0,5.774990845E0,3.171604614E0,9.935822219E0
5.634865833E-1,-1.130494125E1,5.186564484E0,6.173611908E0,1.388580685E1
5.735435833E-1,-1.004037094E1,5.765111389E0,7.482490082E0,1.378525356E1
5.836005833E-1,-8.048612823E0,6.223158875E0,6.138734436E0,1.188242127E1
5.936575833E-1,-8.589138794E0,4.906047821E0,6.816375275E0,1.201272585E1
6.037135833E-1,-7.463479614E0,4.001179504E0,7.066505127E0,1.102943607E1
6.137705833E-1,-6.937323761E0,2.998564453E0,8.741671600E0,1.155572032E1
6.238275833E-1,-5.215304718E0,2.517913971E0,6.139033813E0,8.439610787E0
6.338845833E-1,-5.399571533E0,1.513951721E0,3.084635468E0,6.400187382E0
6.439415833E-1,-7.264992371E0,2.097288666E0,5.185366974E0,9.168792971E0
6.539985833E-1,-6.862778778E0,3.202440491E0,5.725743256E0,9.494076758E0
6.640555833E-1,-5.128485260E0,5.460794220E0,6.189927979E0,9.717862057E0
6.741125833E-1,-5.015320587E0,4.778363342E0,5.776188354E0,9.019453904E0
6.841695833E-1,-5.181175690E0,3.663182373E0,5.771697693E0,8.577644250E0
6.942255833E-1,-4.885690155E0,3.798201599E0,5.711672516E0,8.421372015E0
7.042825833E-1,-5.216352539E0,3.742367706E0,5.179529114E0,8.248828505E0
7.143395833E-1,-5.366190948E0,3.836671600E0,4.840184784E0,8.181897274E0
7.243965833E-1,-5.811963959E0,4.121080170E0,4.930746460E0,8.664553507E0
7.344535833E-1,-6.392606506E0,4.445006561E0,5.394631805E0,9.472357341E0
7.445105833E-1,-6.774312744E0,4.951104126E0,5.946983185E0,1.028452013E1
7.545675833E-1,-7.045099640E0,5.274282074E0,6.352789307E0,1.085400444E1
7.646245833E-1,-7.951764221E0,5.421426086E0,6.445895691E0,1.158326320E1
7.746815833E-1,-8.333320770E0,5.436245270E0,6.289321289E0,1.177083514E1
7.847375832E-1,-7.510182495E0,5.131928101E0,5.935307465E0,1.086127994E1
7.947945833E-1,-6.361022186E0,4.948709106E0,5.274132385E0,9.631656010E0
8.048515833E-1,-5.592969360E0,4.920717316E0,4.877307587E0,8.904094253E0
8.149085833E-1,-4.903952179E0,5.070406036E0,5.158572693E0,8.738915069E0
8.249655833E-1,-4.714595947E0,4.712949371E0,5.470224609E0,8.623378920E0
8.350225833E-1,-4.935985565E0,4.485272827E0,6.191873932E0,9.100600454E0
8.450795833E-1,-4.686753845E0,5.287005615E0,6.923253021E0,9.891891749E0
8.551365833E-1,-4.266876984E0,5.481451263E0,6.590195618E0,9.575135792E0
8.651935833E-1,-4.973707123E0,5.345833282E0,5.876928864E0,9.373045871E0
8.752495833E-1,-5.544470215E0,5.414091339E0,5.208119659E0,9.336918409E0
8.853065833E-1,-5.367837524E0,5.827232208E0,4.979994049E0,9.357919407E0
8.953635833E-1,-4.348906403E0,6.275100861E0,5.442681885E0,9.376175329E0
9.054205833E-1,-4.471351776E0,5.864205322E0,5.796695709E0,9.379955859E0
9.154775833E-1,-5.178481293E0,5.310506744E0,6.242768097E0,9.694859663E0
9.255345833E-1,-5.613027649E0,5.111720123E0,6.242768097E0,9.828932573E0
9.355915833E-1,-5.974974976E0,5.168751526E0,5.919141083E0,9.871805785E0
9.456485834E-1,-6.063740387E0,5.372926941E0,5.594166870E0,9.845404733E0
9.557055833E-1,-6.186185760E0,5.608686676E0,5.646557922E0,1.008017246E1
9.657625833E-1,-6.266568604E0,5.688171387E0,5.787265320E0,1.025268822E1
9.758185833E-1,-6.155649261E0,5.641019440E0,5.747597809E0,1.013646875E1
9.858755833E-1,-6.126909027E0,5.730084229E0,5.674998779E0,1.012810400E1
9.959325833E-1,-6.147715759E0,5.824238434E0,5.655688934E0,1.018346600E1
1.005989583E0,-6.194119263E0,5.936954041E0,5.696703644E0,1.029888194E1
1.016046583E0,-6.424639893E0,6.210734711E0,6.078260193E0,1.080714904E1
1.026103583E0,-6.794820099E0,6.430777130E0,6.369704132E0,1.131802127E1
1.036160583E0,-7.308402100E0,6.458020477E0,6.160139923E0,1.153542776E1
1.046217583E0,-7.573800201E0,6.561605072E0,6.007906494E0,1.168383717E1
1.056274583E0,-7.679181061E0,6.733597412E0,6.100114746E0,1.189632531E1
1.066330583E0,-7.806266785E0,6.893914032E0,6.218967590E0,1.213010345E1
1.076387583E0,-8.060887299E0,7.089856567E0,6.391408997E0,1.249376161E1
1.086444583E0,-8.327333221E0,7.314838715E0,6.339317322E0,1.276864472E1
1.096501583E0,-8.645571442E0,7.500153351E0,6.108796692E0,1.297365033E1
1.106558583E0,-8.844507751E0,7.543114014E0,6.033503265E0,1.309683351E1
1.116615583E0,-8.845854950E0,7.500452728E0,5.938899994E0,1.302983016E1
1.126672583E0,-8.877588959E0,7.407645721E0,5.748046875E0,1.291219748E1
1.136729583E0,-8.981622620E0,7.222031708E0,5.556744690E0,1.279471369E1
1.146786583E0,-8.935518494E0,7.142247620E0,5.357209625E0,1.263150374E1
1.156842583E0,-8.851992188E0,7.204218750E0,5.458848267E0,1.265138561E1
1.166899583E0,-9.017697601E0,7.293582916E0,5.340743866E0,1.276866347E1
1.176956583E0,-9.247170410E0,7.214397583E0,4.354145508E0,1.251064651E1
1.187013583E0,-9.396859131E0,7.023095398E0,3.663032684E0,1.228994056E1
1.197070583E0,-8.961714020E0,6.714586945E0,3.513343964E0,1.173633596E1
1.207127583E0,-8.915011139E0,6.762786713E0,3.172951813E0,1.163100731E1
1.217184583E0,-9.723479919E0,6.962770844E0,3.181933136E0,1.237541668E1
1.227241583E0,-9.920769653E0,6.878645782E0,3.595373383E0,1.259619578E1
1.237298583E0,-9.824519806E0,6.891968079E0,3.217708740E0,1.242473593E1
1.247355583E0,-9.897867279E0,6.882837067E0,2.530338135E0,1.231843472E1
1.257411583E0,-1.006282425E1,6.809938660E0,2.598895569E0,1.242537543E1
1.267468583E0,-1.053913376E1,6.735992432E0,2.779420166E0,1.281296651E1
1.277525583E0,-1.057940002E1,6.520290985E0,2.530787201E0,1.268238082E1
1.287582583E0,-1.059092606E1,6.148464203E0,2.094444580E0,1.242409050E1
1.297639583E0,-1.091215805E1,5.619464264E0,1.738185425E0,1.239656648E1
1.307696583E0,-1.010069550E1,5.961802368E0,1.653760986E0,1.184491715E1
1.317753583E0,-9.712552643E0,5.822741547E0,1.840722198E0,1.147284865E1
1.327810583E0,-9.951904907E0,5.478307800E0,2.045047302E0,1.154272438E1
1.337867583E0,-9.625882874E0,5.322481842E0,1.995500336E0,1.117892909E1
1.347923583E0,-9.046138458E0,5.190905457E0,1.565893707E0,1.054657023E1
1.357980583E0,-8.740623779E0,4.982538757E0,1.479822693E0,1.016927095E1
1.368037750E0,-8.202642517E0,4.719236298E0,1.579814758E0,9.594287371E0
1.378094750E0,-7.770341492E0,4.480931854E0,1.492845612E0,9.093159253E0
1.388151750E0,-7.483388214E0,4.235442352E0,1.027912445E0,8.660062071E0
1.398208750E0,-7.108268280E0,3.925736389E0,6.083349609E-1,8.143031104E0
1.408265750E0,-7.391778717E0,3.815266113E0,4.415817261E-1,8.330044570E0
1.418322750E0,-7.691156158E0,4.265230408E0,3.457809448E-2,8.794729622E0
1.428379750E0,-7.437433777E0,4.272565155E0,-1.652563477E-1,8.578901086E0
1.438436750E0,-7.293133850E0,3.933071136E0,-5.595364380E-1,8.304934133E0
1.448492750E0,-7.302863617E0,3.584895172E0,-6.191125488E-1,8.158835134E0
1.458549750E0,-7.928562469E0,4.265529785E0,-3.977229309E-1,9.011938233E0
1.468606750E0,-7.446714478E0,4.752018127E0,5.059478760E-1,8.848232368E0
1.478663750E0,-6.841373291E0,5.062322845E0,5.062472534E-1,8.525713306E0
1.488720750E0,-5.602100372E0,6.229745178E0,-8.301736450E-1,8.419171090E0
1.498777750E0,-4.620890808E0,7.016060028E0,-2.008972321E0,8.637922202E0
1.508834750E0,-4.910239105E0,5.875282288E0,-2.809657288E0,8.156197895E0
1.518891750E0,-5.723647614E0,4.449048157E0,-3.009342041E0,7.849223594E0
1.528948750E0,-6.185886383E0,4.089944916E0,-2.232607269E0,7.744506116E0
1.539005750E0,-6.471342773E0,4.704417114E0,-1.455423431E0,8.131917058E0
1.549061750E0,-7.025789795E0,5.406457214E0,-5.266049194E-1,8.880811595E0
1.559118750E0,-7.571704559E0,5.222639465E0,1.279838562E-1,9.199078910E0
1.569175750E0,-7.523654480E0,4.835245056E0,4.617897034E-1,8.955345957E0
1.579232750E0,-7.386240234E0,4.230652313E0,1.613644409E0,8.663648889E0
1.589289750E0,-7.437882843E0,4.320465546E0,2.695594482E0,9.014141852E0
1.599346750E0,-7.832612000E0,4.095184021E0,3.249592438E0,9.417016189E0
1.609403750E0,-7.820187836E0,4.128564606E0,2.983296204E0,9.332761635E0
1.619460750E0,-7.596253510E0,4.191134491E0,2.396366730E0,9.000624934E0
1.629517750E0,-7.517966309E0,4.043990479E0,1.531315613E0,8.672865957E0
1.639573750E0,-8.117769012E0,2.862347717E0,7.125183105E-1,8.637064926E0
1.649630750E0,-7.620802460E0,4.277953949E0,4.673281860E-1,8.751909263E0
1.659687750E0,-7.602839813E0,4.895719299E0,-2.546205139E-1,9.046329216E0
1.669744750E0,-7.649542694E0,4.898264008E0,-5.001100159E-1,9.097175592E0
1.679801750E0,-7.163952484E0,5.297483826E0,2.177970886E-1,8.912518480E0
1.689858750E0,-6.758595428E0,6.179150391E0,8.354127502E-1,9.195565571E0
1.699915750E0,-6.752607880E0,6.166277161E0,5.418731689E-1,9.160475628E0
1.709972750E0,-6.602470093E0,7.247329102E0,5.478607178E-1,9.819192523E0
1.720029750E0,-6.420897675E0,8.117319946E0,8.958869934E-1,1.038852365E1
1.730086750E0,-6.543792114E0,7.836803284E0,2.868035889E-1,1.021366522E1
1.740142750E0,-6.549330597E0,7.362739105E0,-5.116360474E-1,9.867392251E0
1.750199750E0,-6.274801483E0,7.234605560E0,-3.679348755E-1,9.583737650E0
1.760256750E0,-6.668333130E0,6.509214020E0,2.254312134E-1,9.321338590E0
1.770313750E0,-7.303312683E0,4.999004517E0,6.029461670E-1,8.870849248E0
1.780370750E0,-6.010301514E0,4.748425598E0,1.648072815E-1,7.661490154E0
1.790427750E0,-4.515809326E0,4.487368469E0,-1.112486572E0,6.462711198E0
1.800484750E0,-3.472478943E0,4.454886017E0,-2.655328217E0,6.241385052E0
1.810541750E0,-2.254761200E0,4.512216797E0,-3.688330078E0,6.248826070E0
1.820598750E0,-1.014889526E0,4.295168152E0,-3.485202484E0,5.623620414E0
1.830655750E0,-7.093748474E-1,3.778442688E0,-2.250120850E0,4.454535403E0
1.840711750E0,-1.398392029E0,3.379671936E0,-9.050180054E-1,3.767856188E0
1.850768750E0,-1.847009125E0,3.059787140E0,-9.909393311E-2,3.575410418E0
1.860825750E0,-1.833537140E0,2.651585999E0,4.381388855E-1,3.253418577E0
1.870882750E0,-1.230890350E0,2.553390198E0,1.266965332E0,3.104850030E0
1.880939750E0,-7.699987793E-1,2.443668365E0,2.734962616E0,3.747590387E0
1.890996750E0,-3.362008667E-1,2.425556030E0,3.378624115E0,4.172703439E0
1.901053750E0,1.598675537E-1,2.638263702E0,4.714146881E0,5.404551213E0
1.911110750E0,4.417314148E-1,2.266436920E0,4.376449127E0,4.948249177E0
1.921167750E0,1.815724182E-1,5.059628448E0,5.269941101E0,7.307878474E0
1.931224750E0,-4.793631592E0,2.319771011E1,6.560407562E0,2.457949564E1
1.941280750E0,-6.904092865E0,4.931045837E1,1.302261932E1,5.146626485E1
1.951337750E0,5.206173706E0,4.834990585E1,1.723201584E1,5.159224758E1
1.961394750E0,1.628358810E1,3.593876495E1,4.985083466E0,3.976934907E1
1.971451750E0,1.633762573E1,1.993269974E1,-1.832429443E1,3.162293946E1
1.981508750E0,6.821165314E0,8.327333221E0,-1.019978943E1,1.482931149E1
1.991565750E0,2.454296265E0,3.823349304E0,-3.378025360E0,5.661503810E0
2.001622750E0,8.864566040E-1,3.355871429E0,9.159452820E-1,3.589795833E0
2.011679750E0,-1.168619843E0,5.000950470E0,3.327879639E0,6.119637312E0
2.021736750E0,-4.177812195E-1,7.081473999E0,4.424499207E0,8.360502878E0
2.031793750E0,1.369502106E0,7.943381653E0,4.641697540E0,9.301516229E0
2.041849750E0,1.798659668E0,8.389603729E0,4.274960175E0,9.586235540E0
2.051906750E0,1.905836792E0,9.061107330E0,3.532055054E0,9.910161090E0
2.061963750E0,1.741777954E0,9.223669281E0,2.522853699E0,9.719807417E0
2.072020750E0,1.229543152E0,9.628277893E0,1.132993927E0,9.772368535E0
2.082077750E0,8.192463684E-1,1.026131149E1,1.164578247E-1,1.029462193E1
2.092134750E0,7.691006470E-1,1.048644333E1,-1.803749084E-1,1.051615636E1
2.102191750E0,7.563771057E-1,1.031055908E1,1.998344421E-1,1.034019674E1
2.112248750E0,8.827143860E-1,9.987081757E0,8.271798706E-1,1.006008018E1
2.122305750E0,7.140151978E-1,9.518556061E0,1.056952057E0,9.603638625E0
2.132362750E0,6.280938721E-1,9.281449127E0,1.169218597E0,9.375866464E0
2.142418750E0,6.667135620E-1,9.442214813E0,1.264720001E0,9.549840011E0
2.152475750E0,6.710545349E-1,9.602830811E0,1.135388947E0,9.692975901E0
2.162532750E0,7.635621643E-1,9.827663269E0,8.292755127E-1,9.892102425E0
2.172589750E0,8.280780029E-1,1.003992188E1,5.411247253E-1,1.008853609E1
2.182646750E0,8.863069153E-1,1.003692810E1,4.156855774E-1,1.008455553E1
2.192703750E0,8.887019348E-1,9.933193817E0,4.722679138E-1,9.984045649E0
2.202760750E0,9.639953613E-1,9.961634674E0,6.849755859E-1,1.003158233E1
2.212817750E0,1.168769531E0,9.913135529E0,8.952882385E-1,1.002186705E1
2.222874750E0,1.323697357E0,9.674232330E0,1.021176453E0,9.817624317E0
2.232931750E0,1.314117279E0,9.397906952E0,1.107097778E0,9.553702151E0
2.242987750E0,1.218017120E0,9.450298004E0,1.143322449E0,9.596816362E0
2.253044750E0,1.291364594E0,9.542356567E0,1.147513733E0,9.697472822E0
2.263101750E0,1.284179535E0,9.636061707E0,1.061742096E0,9.779064299E0
2.273158750E0,1.289568329E0,9.723479919E0,9.023236084E-1,9.850037366E0
2.283215750E0,1.237476654E0,9.706415405E0,7.782316589E-1,9.815879635E0
2.293272750E0,1.210832062E0,9.725126495E0,8.378077698E-1,9.835960629E0
2.303329750E0,1.183289337E0,9.695488129E0,9.069639587E-1,9.809446841E0
2.313386750E0,1.198856964E0,9.746382294E0,8.120613098E-1,9.853358281E0
2.323443750E0,1.309177551E0,9.796827393E0,8.096662903E-1,9.917022352E0
2.333500750E0,1.417252808E0,9.911039886E0,7.997868347E-1,1.004375309E1
2.343556750E0,1.197958832E0,9.817783813E0,5.908213806E-1,9.908231642E0
2.353613750E0,1.547182617E0,9.741143188E0,1.029858398E0,9.916867096E0
2.363670833E0,1.076710968E0,9.485175476E0,5.671705627E-1,9.562925429E0
2.373727833E0,1.042132874E0,9.591604156E0,2.502795410E-1,9.651297896E0
2.383784833E0,1.555565186E0,9.451345825E0,7.475454712E-1,9.607629530E0
2.393841833E0,7.610174561E-1,9.654623108E0,9.536668396E-1,9.731411787E0
2.403898833E0,9.859996033E-1,9.848170624E0,1.125509491E0,9.961196287E0
2.413955833E0,1.058448944E0,9.753417664E0,1.073417816E0,9.869229762E0
2.424012833E0,1.048419800E0,9.731712799E0,7.524851990E-1,9.816906440E0
2.434069833E0,1.176253967E0,9.747579803E0,6.545887756E-1,9.840090034E0
2.444125833E0,1.045426025E0,9.739646301E0,7.617658997E-1,9.825167323E0
2.454182833E0,1.059197388E0,9.693392487E0,8.385562134E-1,9.787079929E0
2.464239833E0,1.080153809E0,9.707762604E0,8.250842285E-1,9.802456376E0
2.474296833E0,1.001267853E0,9.758058014E0,7.005432129E-1,9.834276502E0
2.484353833E0,1.046324158E0,9.768236847E0,5.716612244E-1,9.840733809E0
2.494410833E0,1.061592407E0,9.765243073E0,5.375321960E-1,9.837473841E0
2.504467833E0,1.018781433E0,9.762548676E0,5.825885010E-1,9.832836906E0
2.514524833E0,9.324110413E-1,9.757758636E0,6.956034851E-1,9.826856474E0
2.524581833E0,8.954379272E-1,9.751621399E0,7.518864441E-1,9.821469453E0
2.534638833E0,8.071215820E-1,9.763147430E0,7.918533325E-1,9.828403975E0
2.544694833E0,8.836125183E-1,9.793683929E0,8.084687805E-1,9.866642679E0
2.554751833E0,8.647517395E-1,9.764943695E0,7.933502197E-1,9.835208463E0
2.564808833E0,7.523355103E-1,9.741143188E0,7.933502197E-1,9.802310131E0
2.574865833E0,8.250842285E-1,9.777966614E0,7.807763672E-1,9.843729315E0
2.584922833E0,9.300160217E-1,9.816436615E0,6.494993591E-1,9.881761333E0
2.594979833E0,9.252259827E-1,9.864037628E0,5.791456604E-1,9.924247636E0
2.605036833E0,8.672964478E-1,9.861941986E0,7.710466003E-1,9.929985686E0
2.615093833E0,6.572831726E-1,9.867330780E0,9.937834167E-1,9.939006156E0
2.625150833E0,5.574407959E-1,9.853858795E0,1.066831512E0,9.927104456E0
2.635207833E0,5.173242188E-1,9.814191284E0,1.109343109E0,9.890228362E0
2.645264833E0,3.787124634E-1,9.794582062E0,1.096020813E0,9.862987505E0
2.655320833E0,3.397933960E-1,9.799222412E0,1.075513458E0,9.863921565E0
2.665377833E0,2.683918762E-1,9.792935486E0,9.798623657E-1,9.845493887E0
2.675434833E0,2.047741699E-1,9.770033112E0,9.372010803E-1,9.817017130E0
2.685491833E0,1.859133911E-1,9.692344666E0,9.767189026E-1,9.743207312E0
2.695548833E0,2.022294617E-1,9.600435791E0,1.015787659E0,9.656142537E0
2.705605833E0,2.941383362E-1,9.529633026E0,9.895921326E-1,9.585390736E0
2.715662833E0,4.784051514E-1,9.501341858E0,9.807604980E-1,9.563799441E0
2.725719833E0,6.045927429E-1,9.510173492E0,9.759704590E-1,9.579219727E0
2.735776833E0,8.108638000E-1,9.558822327E0,1.008602600E0,9.646028384E0
2.745833833E0,1.043629761E0,9.621092834E0,1.058448944E0,9.735240345E0
2.755889833E0,1.192420349E0,9.676028595E0,1.111438751E0,9.812374420E0
2.765946833E0,1.334774323E0,9.710906067E0,1.202898560E0,9.875742204E0
2.776003833E0,1.454375610E0,9.728868713E0,1.267713776E0,9.918326123E0
2.786060833E0,1.524729309E0,9.737251282E0,1.271755371E0,9.937616601E0
2.796117833E0,1.561103668E0,9.737999725E0,1.252894592E0,9.941600886E0
2.806174833E0,1.576072540E0,9.757608948E0,1.236578522E0,9.961127620E0
2.816231833E0,1.546134796E0,9.746382294E0,1.237925720E0,9.945600068E0
2.826288833E0,1.394051056E0,9.735604706E0,1.236428833E0,9.912322311E0
2.836345833E0,1.472787323E0,9.756411438E0,1.230740662E0,9.943409336E0
2.846402833E0,1.424288177E0,9.740694122E0,1.201850739E0,9.917366787E0
2.856459833E0,1.287322998E0,9.726473694E0,1.227447510E0,9.887776211E0
2.866515833E0,1.229243774E0,9.688901825E0,1.335223389E0,9.857417528E0
2.876572833E0,1.157393188E0,9.628427582E0,1.355581055E0,9.792026179E0
2.886629833E0,1.131796417E0,9.618548126E0,1.295705566E0,9.771196657E0
2.896686833E0,1.127006378E0,9.620194702E0,1.265618134E0,9.768320160E0
2.906743833E0,1.088087311E0,9.638905792E0,1.209484863E0,9.775238744E0
2.916800833E0,1.067280579E0,9.685608673E0,1.150956573E0,9.811972495E0
2.926857833E0,1.060095520E0,9.706116028E0,1.074765015E0,9.822810733E0
2.936914833E0,1.084943848E0,9.740544434E0,1.005908203E0,9.852266761E0
2.946971833E0,1.087787933E0,9.753118286E0,9.723779297E-1,9.861648834E0
2.957028833E0,1.065634003E0,9.748028870E0,9.452842712E-1,9.851558507E0
2.967084833E0,1.008153534E0,9.722881165E0,9.768685913E-1,9.823699096E0
2.977141833E0,9.517208862E-1,9.707762604E0,9.982740784E-1,9.805252600E0
2.987198833E0,9.178912354E-1,9.705816650E0,1.008153534E0,9.801110892E0
2.997255833E0,8.572673035E-1,9.716893616E0,1.006806335E0,9.806456433E0
3.007312833E0,8.175997925E-1,9.744286652E0,1.002914429E0,9.829823453E0
3.017369833E0,7.803273010E-1,9.749675446E0,9.840536499E-1,9.830231105E0
3.027426833E0,7.827223206E-1,9.740993500E0,9.545649719E-1,9.818900289E0
3.037483833E0,8.333171082E-1,9.699080658E0,9.142987061E-1,9.777654378E0
3.047540833E0,9.192384338E-1,9.670041046E0,8.864566040E-1,9.753999100E0
3.057597833E0,9.725276184E-1,9.633666687E0,8.957373047E-1,9.723974965E0
3.067654833E0,1.029708710E0,9.617799683E0,9.469308472E-1,9.719004516E0
3.077710833E0,1.095122681E0,9.629625092E0,1.018332367E0,9.745048686E0
3.087767833E0,1.146016846E0,9.651779022E0,1.040635986E0,9.775127424E0
3.097824833E0,1.184037781E0,9.680968323E0,1.052760773E0,9.809760363E0
3.107881833E0,1.224004669E0,9.706714783E0,1.075812836E0,9.842554169E0
3.117938833E0,1.253643036E0,9.717642059E0,1.072369995E0,9.856681260E0
3.127995833E0,1.286275177E0,9.701924744E0,1.043180695E0,9.842259574E0
3.138052833E0,1.322948914E0,9.690099335E0,1.005159760E0,9.831508790E0
3.148109833E0,1.349443817E0,9.690099335E0,9.870474243E-1,9.833274447E0
3.158166833E0,1.362317047E0,9.697733459E0,9.879455566E-1,9.842661145E0
3.168223833E0,1.385668488E0,9.687105560E0,9.973759460E-1,9.836404326E0
3.178280833E0,1.415755920E0,9.688752136E0,1.018182678E0,9.844438976E0
3.188336833E0,1.438059540E0,9.699529724E0,1.055305481E0,9.862178348E0
3.198393833E0,1.465602264E0,9.700876923E0,1.082997894E0,9.870556595E0
3.208450833E0,1.466051331E0,9.691446533E0,1.088985443E0,9.862014587E0
3.218507833E0,1.456620941E0,9.659113770E0,1.084045715E0,9.828294791E0
3.228564833E0,1.429676971E0,9.648785248E0,1.059646454E0,9.811517905E0
3.238621833E0,1.396446075E0,9.624685364E0,1.024319916E0,9.779256684E0
3.248678833E0,1.367256775E0,9.649384003E0,9.879455566E-1,9.795715346E0
3.258735833E0,1.347198486E0,9.676777039E0,9.704319763E-1,9.818181901E0
3.268792833E0,1.342109070E0,9.695188751E0,9.698332214E-1,9.835574114E0
3.278849833E0,1.337319031E0,9.690099335E0,1.003513184E0,9.833284600E0
3.288906833E0,1.335672455E0,9.679022369E0,1.027613068E0,9.824636561E0
3.298962833E0,1.337468719E0,9.657916260E0,1.051114197E0,9.806579940E0
3.309019833E0,1.339714050E0,9.651779022E0,1.053209839E0,9.801067442E0
3.319076833E0,1.326840820E0,9.651629333E0,1.033151550E0,9.797033096E0
3.329133833E0,1.334624634E0,9.663305054E0,1.008602600E0,9.807036590E0
3.339190833E0,1.295855255E0,9.698481903E0,9.948312378E-1,9.835114705E0
3.349247833E0,1.272354126E0,9.727970581E0,9.696835327E-1,9.858629864E0
3.359304833E0,1.246008911E0,9.728419647E0,9.436376953E-1,9.853179139E0
3.369361500E0,1.216220856E0,9.720935211E0,9.608518982E-1,9.843729523E0
3.379418500E0,1.188378754E0,9.723928986E0,9.839039612E-1,9.845562756E0
3.389475500E0,1.153950348E0,9.715696106E0,9.966275024E-1,9.834613292E0
3.399531500E0,1.120869141E0,9.702822876E0,1.012644196E0,9.819703033E0
3.409588500E0,1.094823303E0,9.688153381E0,1.036594391E0,9.804768327E0
3.419645500E0,1.079405365E0,9.691596222E0,1.059496765E0,9.808908536E0
3.429702500E0,1.062640228E0,9.700427856E0,1.059047699E0,9.815757071E0
3.439759500E0,1.055006104E0,9.690249023E0,1.046174469E0,9.803491472E0
3.449816500E0,1.035396881E0,9.678423615E0,1.032552795E0,9.788263157E0
3.459873500E0,1.024469604E0,9.671537933E0,1.027613068E0,9.779783872E0
3.469930500E0,1.030606842E0,9.692494354E0,1.024918671E0,9.800870143E0
3.479987500E0,1.023870850E0,9.707912292E0,1.027762756E0,9.815710309E0
3.490044500E0,1.042432251E0,9.708960114E0,1.042731628E0,9.820278037E0
3.500101500E0,1.045875092E0,9.703421631E0,1.041833496E0,9.815073259E0
3.510158500E0,1.044378204E0,9.695188751E0,1.064586182E0,9.809217833E0
3.520214500E0,1.058898010E0,9.674232330E0,1.099613342E0,9.793936169E0
3.530271500E0,1.065783691E0,9.664203186E0,1.102457428E0,9.785097367E0
3.540328500E0,1.075214081E0,9.658215637E0,1.107397156E0,9.780774155E0
3.550385500E0,1.085841980E0,9.668843536E0,1.104852448E0,9.792154363E0
3.560442500E0,1.060095520E0,9.678573303E0,1.090332642E0,9.797316417E0
3.570499500E0,1.044976959E0,9.701026611E0,1.073717194E0,9.816046188E0
3.580556500E0,1.045575714E0,9.721983032E0,1.077309723E0,9.837213980E0
3.590613500E0,1.053958282E0,9.718989258E0,1.084345093E0,9.835923166E0
3.600670500E0,1.058898010E0,9.727671204E0,1.113235016E0,9.848255898E0
3.610727500E0,1.079555054E0,9.719737701E0,1.122366028E0,9.843700808E0
3.620783500E0,1.078058167E0,9.693242798E0,1.133442993E0,9.818648500E0
3.630840500E0,1.056203613E0,9.687404938E0,1.160985718E0,9.813728564E0
3.640897500E0,1.066382446E0,9.696236572E0,1.157093811E0,9.823087156E0
3.650954500E0,1.069525909E0,9.701625366E0,1.119971008E0,9.824446828E0
3.661011500E0,1.111588440E0,9.758806458E0,1.102307739E0,9.883572972E0
3.671068500E0,1.134640503E0,9.753567352E0,1.084644470E0,9.879065684E0
3.681125500E0,1.152303772E0,9.744136963E0,1.104702759E0,9.874025386E0
3.691182500E0,1.200204163E0,9.762099609E0,1.138682098E0,9.901296669E0
3.701239500E0,1.225202179E0,9.754315796E0,1.142873383E0,9.897169120E0
3.711296500E0,1.254391479E0,9.719737701E0,1.159788208E0,9.868733843E0
3.721353500E0,1.280137939E0,9.648635559E0,1.193917236E0,9.806138876E0
3.731409500E0,1.286275177E0,9.600286102E0,1.227597198E0,9.763554269E0
3.741466500E0,1.279988251E0,9.563013611E0,1.224453735E0,9.725681786E0
3.751523500E0,1.265618134E0,9.567653961E0,1.243464203E0,9.730775653E0
3.761580500E0,1.241817627E0,9.619745636E0,1.260678406E0,9.781151628E0
3.771637500E0,1.206341400E0,9.670190735E0,1.267414398E0,9.827216680E0
3.781694500E0,1.186133423E0,9.700128479E0,1.265618134E0,9.853993823E0
3.791751500E0,1.154698792E0,9.692644043E0,1.235530701E0,9.839065705E0
3.801808500E0,1.113983459E0,9.670490112E0,1.182091827E0,9.805951216E0
3.811865500E0,1.082548828E0,9.660910034E0,1.153950348E0,9.789621855E0
3.821922500E0,1.040635986E0,9.680070190E0,1.102607117E0,9.798082700E0
3.831979500E0,1.020877075E0,9.689201202E0,1.037941589E0,9.797965742E0
3.842035500E0,1.007255402E0,9.704768829E0,1.004710693E0,9.808493516E0
3.852092500E0,1.000818787E0,9.718839569E0,1.007405090E0,9.822033691E0
3.862149500E0,1.016087036E0,9.739646301E0,1.003064117E0,9.843743219E0
3.872206500E0,1.017434235E0,9.727222137E0,1.018482056E0,9.833174901E0
3.882263500E0,1.016236725E0,9.706415405E0,1.041683807E0,9.814904088E0
3.892320500E0,1.035696259E0,9.724078674E0,1.079405365E0,9.838469838E0
3.902377500E0,1.053209839E0,9.714947662E0,1.090931396E0,9.832578012E0
3.912434500E0,1.039887543E0,9.715995483E0,1.103804626E0,9.833632034E0
3.922491500E0,1.069825287E0,9.716893616E0,1.128353577E0,9.840514696E0
3.932548500E0,1.081201630E0,9.711504822E0,1.123563538E0,9.835889278E0
3.942605500E0,1.091081085E0,9.685159607E0,1.127605133E0,9.811435567E0
3.952662500E0,1.118923187E0,9.645941162E0,1.126557312E0,9.775750681E0
3.962718500E0,1.129251709E0,9.624835052E0,1.115330658E0,9.754825559E0
3.972775500E0,1.154100037E0,9.619446259E0,1.122515717E0,9.753242269E0
3.982832500E0,1.186432800E0,9.634415131E0,1.122815094E0,9.771913397E0
3.992889500E0,1.194515991E0,9.659712524E0,1.134041748E0,9.799130839E0
4.002946500E0,1.179247742E0,9.677824860E0,1.144370270E0,9.816338552E0
4.013003500E0,1.159638519E0,9.685758362E0,1.149010620E0,9.822367431E0
4.023060500E0,1.125958557E0,9.701176300E0,1.138083344E0,9.832387196E0
4.033117500E0,1.087338867E0,9.708061981E0,1.129850464E0,9.833887091E0
4.043174500E0,1.063238983E0,9.706565094E0,1.111139374E0,9.827640295E0
4.053231500E0,1.060394897E0,9.703421631E0,1.106199646E0,9.823670716E0
4.063288500E0,1.051413574E0,9.711804199E0,1.102158051E0,9.830532217E0
4.073344500E0,1.056203613E0,9.714648285E0,1.098116455E0,9.833403130E0
4.083401500E0,1.036444702E0,9.722282410E0,1.093476105E0,9.838327239E0
4.093458500E0,1.042881317E0,9.712552643E0,1.099613342E0,9.830077812E0
4.103515500E0,1.043031006E0,9.713301086E0,1.116378479E0,9.832722542E0
4.113572500E0,1.050515442E0,9.708211670E0,1.112336884E0,9.828033876E0
4.123629500E0,1.050515442E0,9.692194977E0,1.125958557E0,9.813766292E0
4.133686500E0,1.059347076E0,9.676627350E0,1.139280853E0,9.800882305E0
4.143743500E0,1.054107971E0,9.675280151E0,1.132395172E0,9.798189039E0
4.153800500E0,1.060245209E0,9.664352875E0,1.130149841E0,9.787802361E0
4.163857500E0,1.058448944E0,9.660760345E0,1.115330658E0,9.782359996E0
4.173914500E0,1.084794159E0,9.651329956E0,1.110839996E0,9.775423970E0
4.183970500E0,1.088386688E0,9.652377777E0,1.111289062E0,9.776908802E0
4.194027500E0,1.088686066E0,9.664502563E0,1.118623810E0,9.789748024E0
4.204084500E0,1.103205872E0,9.671837311E0,1.126257935E0,9.799487594E0
4.214141500E0,1.109043732E0,9.693093109E0,1.095122681E0,9.817602849E0
4.224198500E0,1.106798401E0,9.711504822E0,1.075513458E0,9.833364521E0
4.234255500E0,1.113384705E0,9.712402954E0,1.087787933E0,9.836344811E0
4.244312500E0,1.122815094E0,9.704619141E0,1.109343109E0,9.832140588E0
4.254369500E0,1.146316223E0,9.701775055E0,1.122665405E0,9.833557734E0
4.264426500E0,1.174906769E0,9.713001709E0,1.107397156E0,9.846275264E0
4.274483500E0,1.154698792E0,9.685908051E0,1.097517700E0,9.816042439E0
4.284540500E0,1.171463928E0,9.690698090E0,1.141526184E0,9.827768782E0
4.294596500E0,1.150806885E0,9.701625366E0,1.176703033E0,9.840250061E0
4.304653500E0,1.132844238E0,9.699230347E0,1.197659454E0,9.838332865E0
4.314710500E0,1.134939880E0,9.676926727E0,1.212927704E0,9.818461847E0
4.324767500E0,1.154399414E0,9.670789490E0,1.240620117E0,9.818143696E0
4.334824500E0,1.190324707E0,9.683962097E0,1.249302063E0,9.836500925E0
4.344881500E0,1.179098053E0,9.662556610E0,1.220561829E0,9.810455832E0
4.354938500E0,1.150058441E0,9.623038788E0,1.186732178E0,9.763905120E0
4.364995875E0,1.126856689E0,9.605225830E0,1.179846497E0,9.742802831E0
4.375052875E0,1.082099762E0,9.601932678E0,1.148262177E0,9.730701777E0
4.385109875E0,1.025517426E0,9.610015869E0,1.112785950E0,9.728431711E0
4.395166875E0,9.720785522E-1,9.609117737E0,1.075064392E0,9.717810650E0
4.405222875E0,8.948391724E-1,9.641450500E0,1.084195404E0,9.743396973E0
4.415279875E0,8.192463684E-1,9.691296844E0,1.101110229E0,9.787994834E0
4.425336875E0,7.074288940E-1,9.765841827E0,1.109343109E0,9.854073491E0
4.435393875E0,5.804928589E-1,9.796078949E0,1.111738129E0,9.876036472E0
4.445450875E0,5.557942200E-1,9.790091400E0,1.143621826E0,9.872318255E0
4.455507875E0,5.288502502E-1,9.724378052E0,1.200204163E0,9.812425853E0
4.465564875E0,5.236111450E-1,9.645492096E0,1.293011169E0,9.745848567E0
4.475621875E0,5.340893555E-1,9.561367035E0,1.355131989E0,9.671678951E0
4.485678875E0,5.695655823E-1,9.508676605E0,1.351689148E0,9.621143346E0
4.495735875E0,6.545887756E-1,9.499994659E0,1.261576538E0,9.605725395E0
4.505792875E0,7.321275330E-1,9.483079834E0,1.107846222E0,9.575601136E0
4.515848875E0,7.551795959E-1,9.486672363E0,9.737251282E-1,9.566367617E0
4.525905875E0,7.722441101E-1,9.517208862E0,8.773255920E-1,9.588708239E0
4.535962875E0,7.517367554E-1,9.577533417E0,7.658074951E-1,9.637464169E0
4.546019875E0,7.116201782E-1,9.682764587E0,6.915618896E-1,9.733477856E0
4.556076875E0,6.596781921E-1,9.794731750E0,5.996530151E-1,9.835218814E0
4.566133875E0,5.580395508E-1,9.873617706E0,4.963677979E-1,9.901823859E0
4.576190875E0,4.695735168E-1,9.915530548E0,4.282594299E-1,9.935876986E0
4.586247875E0,3.957769775E-1,9.939331055E0,4.016148376E-1,9.955311934E0
4.596304875E0,3.074606323E-1,9.921218719E0,4.116439819E-1,9.934513762E0
4.606361875E0,2.445913696E-1,9.891879730E0,4.357438660E-1,9.904493034E0
4.616418875E0,2.020797729E-1,9.876461792E0,4.596940613E-1,9.889218998E0
4.626475875E0,2.139051819E-1,9.857301636E0,4.739144897E-1,9.871005314E0
4.636531875E0,2.245330811E-1,9.828411713E0,4.617897034E-1,9.841815972E0
4.646588875E0,2.463876343E-1,9.803713074E0,4.444258118E-1,9.816873800E0
4.656645875E0,3.038681030E-1,9.790839844E0,4.287084961E-1,9.804930986E0
4.666702875E0,3.420387268E-1,9.805958405E0,4.102967834E-1,9.820496636E0
4.676759875E0,3.582051086E-1,9.839189301E0,4.037104797E-1,9.853980878E0
4.686816875E0,3.626957703E-1,9.868827667E0,3.906875610E-1,9.883215292E0
4.696873875E0,3.261717224E-1,9.880054321E0,3.555107117E-1,9.891827397E0
4.706930875E0,2.875520325E-1,9.909243622E0,3.330574036E-1,9.919008144E0
4.716987875E0,2.959346008E-1,9.922116852E0,2.785707092E-1,9.930437138E0
4.727044875E0,2.897973633E-1,9.920470276E0,2.131567383E-1,9.926990924E0
4.737101875E0,3.365002441E-1,9.900711365E0,1.311273193E-1,9.907295913E0
4.747157875E0,4.201762390E-1,9.905800781E0,1.556762695E-2,9.914720346E0
4.757214875E0,5.126838684E-1,9.923314362E0,-1.320254517E-1,9.937426397E0
4.767271875E0,5.355862427E-1,9.906249847E0,-2.800675964E-1,9.924670096E0
4.777328875E0,5.297483826E-1,9.889784088E0,-4.691244507E-1,9.915066334E0
4.787385875E0,5.005590820E-1,9.848470001E0,-6.996450806E-1,9.885971070E0
4.797442875E0,4.287084961E-1,9.832303619E0,-8.918453979E-1,9.881972154E0
4.807499875E0,3.775149536E-1,9.866881714E0,-9.641450500E-1,9.921060829E0
4.817556875E0,3.805087280E-1,9.830806732E0,-1.053808594E0,9.894445940E0
4.827613875E0,5.020559692E-1,9.767039337E0,-1.237476654E0,9.857913881E0
4.837670875E0,5.469625854E-1,9.855655060E0,-1.456770630E0,9.977739493E0
4.847727875E0,6.481521606E-1,1.011686188E1,-1.618434448E0,1.026597903E1
4.857783875E0,8.408015442E-1,1.044752426E1,-1.659898224E0,1.061192596E1
4.867840875E0,6.021977234E-1,1.075438614E1,-1.622476044E0,1.089274492E1
4.877897875E0,6.221063232E-1,1.115465378E1,-1.537003784E0,1.127722031E1
4.887954875E0,7.229965210E-1,1.182016983E1,-1.066532135E0,1.189019048E1
4.898011875E0,5.816903687E-1,1.251727020E1,-1.193318481E0,1.258747099E1
4.908068875E0,-3.782633972E-1,1.284703445E1,-1.723815308E0,1.296768741E1
4.918125875E0,-1.100661163E0,1.272399033E1,-2.066901855E0,1.293767630E1
4.928182875E0,-1.001267853E0,1.247610580E1,-2.846929779E0,1.283591689E1
4.938239875E0,-4.391867065E-1,1.235515732E1,-3.316203918E0,1.280000022E1
4.948296875E0,1.603166199E-1,1.210412933E1,-2.156116333E0,1.229571006E1
4.958353875E0,1.627116394E-1,1.185250259E1,-2.377056885E-1,1.185600256E1
4.968410875E0,-4.129911804E-1,1.168679718E1,1.017284546E0,1.173825617E1
4.978466875E0,-5.213658142E-1,1.167452271E1,8.226892090E-1,1.171508089E1
4.988523875E0,-5.273533630E-1,1.109103607E1,-7.177574158E-1,1.112674069E1
4.998580875E0,-2.109114075E-1,1.040995239E1,-2.634072418E0,1.074010847E1
5.008637875E0,3.326083374E-1,9.677525482E0,-3.813469849E0,1.040709758E1
5.018694875E0,8.795709229E-1,9.028624878E0,-3.969445496E0,9.901828606E0
5.028751875E0,1.652114410E0,8.257428589E0,-3.642375641E0,9.175048187E0
5.038808875E0,1.786085815E0,7.936795349E0,-2.955603790E0,8.655542543E0
5.048865875E0,1.018332367E0,7.951315155E0,-1.976789246E0,8.256398078E0
5.058922875E0,2.323168945E-1,7.861950989E0,-2.119891663E0,8.146053348E0
5.068979875E0,-5.179229736E-1,7.665858765E0,-2.764451294E0,8.165526668E0
5.079036875E0,-9.352551270E-1,7.235354004E0,-3.056643677E0,7.910001282E0
5.089093875E0,-1.228645020E0,7.004833374E0,-3.150049438E0,7.778179134E0
5.099149875E0,-1.122515717E0,7.094496918E0,-3.164718933E0,7.849036500E0
5.109206875E0,-4.049079895E-1,7.231162720E0,-3.401526489E0,8.001502810E0
5.119263875E0,9.624984741E-2,7.153474274E0,-3.502716064E0,7.965580835E0
5.129320875E0,4.821473694E-1,6.950945435E0,-3.550766144E0,7.820233291E0
5.139377875E0,4.743635559E-1,6.560706940E0,-3.652853851E0,7.524043965E0
5.149434875E0,8.672964478E-1,6.396797791E0,-3.929628296E0,7.557327811E0
5.159491875E0,8.818162537E-1,6.292614441E0,-4.016298065E0,7.516997177E0
5.169548875E0,1.788780212E-1,5.814209290E0,-3.954925690E0,7.034092992E0
5.179605875E0,3.432362366E-1,5.667214966E0,-4.446952515E0,7.211832170E0
5.189662875E0,8.981323242E-3,5.358257446E0,-4.692142639E0,7.122303425E0
5.199719875E0,-2.986289978E-1,5.081333313E0,-4.958289185E0,7.105896084E0
5.209775875E0,-1.034349060E-1,5.234764252E0,-5.536985779E0,7.620476827E0
5.219832875E0,-4.593946838E-1,5.273234253E0,-5.820795593E0,7.867636513E0
5.229889875E0,-8.277786255E-2,5.871689758E0,-6.211183777E0,8.547654456E0
5.239946875E0,-4.586462402E-1,6.263125763E0,-6.515800323E0,9.049461561E0
5.250003875E0,-6.538403320E-1,6.109096069E0,-7.492668915E0,9.689615546E0
5.260060875E0,-1.416504364E0,5.539081421E0,-7.650291138E0,9.550647208E0
5.270117875E0,-7.444020081E-1,6.109994202E0,-8.255033569E0,1.029717159E1
5.280174875E0,-8.794212341E-1,6.751709747E0,-9.757459259E0,1.189819219E1
5.290231875E0,-2.064357147E0,6.477779388E0,-1.136571487E1,1.324396734E1
5.300288875E0,-1.981579285E0,6.610403595E0,-1.240814713E1,1.419810576E1
5.310345875E0,-1.345851288E0,6.860683136E0,-1.234153564E1,1.418427971E1
5.320402875E0,6.167175293E-1,7.151378632E0,-1.188019501E1,1.388025901E1
5.330459875E0,1.182690582E0,6.975793762E0,-1.076067307E1,1.287837491E1
5.340515875E0,1.438957672E0,6.728358307E0,-9.569450226E0,1.178625396E1
5.350572875E0,1.766177216E0,6.159990234E0,-7.924071808E0,1.019096539E1
5.360629875E0,1.535207520E0,4.974605255E0,-7.266040192E0,8.938618441E0
5.370686750E0,3.505709839E0,5.111121368E0,-9.036408691E0,1.095765692E1
5.380743750E0,4.590503998E0,7.287445679E0,-1.038166122E1,1.348919869E1
5.390800750E0,3.194057922E0,1.062924637E1,-9.579479370E0,1.466114966E1
5.400857750E0,1.862576752E0,1.250634293E1,-7.494315491E0,1.469838665E1
5.410914750E0,3.049009552E0,1.323457855E1,-6.780000916E0,1.517955668E1
5.420971750E0,4.713548126E0,1.415920578E1,-6.913822632E0,1.644693247E1
5.431028750E0,4.758454742E0,1.481529144E1,-7.528743896E0,1.728634538E1
5.441085750E0,4.962330780E0,1.344788498E1,-5.500461731E0,1.535335196E1
5.451142750E0,6.896907806E0,9.286688232E0,-2.913241882E0,1.192882617E1
5.461198750E0,7.441475372E0,5.554948425E0,-1.173858948E0,9.360072252E0
5.471255750E0,5.758076019E0,3.402125244E0,-1.486408997E0,6.851226702E0
5.481312750E0,3.941902771E0,3.206332397E0,-2.814147949E0,5.808493228E0
5.491369750E0,2.642604675E0,4.601730652E0,-1.564995575E0,5.532494520E0
5.501426750E0,1.890119476E0,6.507268066E0,8.999285889E-1,6.835712164E0
5.511483750E0,1.032852173E0,8.501870270E0,2.295775909E0,8.866745103E0
5.521540750E0,-6.301895142E-2,1.032747391E1,3.064128113E0,1.077263059E1
5.531597750E0,-9.306147766E-1,1.170461014E1,3.610042877E0,1.228398762E1
5.541654750E0,-1.659449158E0,1.218002151E1,3.382516022E0,1.274943568E1
5.551711750E0,-2.576442261E0,1.269779480E1,2.552791443E0,1.320563484E1
5.561768750E0,-2.793191528E0,1.327529388E1,1.653760986E0,1.366639206E1
5.571825750E0,-2.236349487E0,1.286858963E1,1.501826935E0,1.314752229E1
5.581881750E0,-1.499731293E0,1.183888092E1,1.823807373E0,1.207205735E1
5.591938750E0,-1.077160034E0,1.083925964E1,2.301763458E0,1.113319084E1
5.601995750E0,-7.934999084E-1,1.001222946E1,2.293530579E0,1.030216790E1
5.612052750E0,-5.114863586E-1,9.449399872E0,1.635648651E0,9.603547404E0
5.622109750E0,-1.559756470E-1,9.055868225E0,1.163680115E0,9.131660809E0
5.632166750E0,-4.580474854E-2,8.574768677E0,8.261320496E-1,8.614595179E0
5.642223750E0,1.074765015E-1,8.435408478E0,4.132905579E-1,8.446210776E0
5.652280750E0,3.402424622E-1,8.389454041E0,4.653822327E-1,8.409238054E0
5.662337750E0,5.328918457E-1,8.306227112E0,7.213499451E-1,8.354503474E0
5.672394750E0,6.849755859E-1,8.417146454E0,1.056802368E0,8.510838809E0
5.682451750E0,7.119195557E-1,8.659791870E0,1.504671021E0,8.818325213E0
5.692508750E0,7.197033691E-1,8.723409576E0,1.798959045E0,8.936000292E0
5.702564750E0,6.084846497E-1,8.589587860E0,1.458866272E0,8.733817263E0
5.712621750E0,3.857478333E-1,8.430917816E0,7.285350037E-1,8.471123884E0
5.722678750E0,-6.812333679E-1,8.644972687E0,5.831872559E-1,8.691360022E0
5.732735750E0,-1.371897125E0,8.850195923E0,-4.107458496E-1,8.965309908E0
5.742792750E0,-1.555714874E0,9.122330017E0,-1.276246033E0,9.341625000E0
5.752849750E0,-1.194815369E0,9.342073059E0,-1.561702423E0,9.546770515E0
5.762906750E0,-6.870712280E-1,9.186546478E0,-1.157393188E0,9.284625036E0
5.772963750E0,-4.141886902E-1,9.003177795E0,-2.200424194E-1,9.015385813E0
5.783020750E0,6.436614990E-3,8.914412384E0,7.011419678E-1,8.941945518E0
5.793077750E0,3.332070923E-1,8.783434753E0,1.211131439E0,8.872800708E0
5.803134750E0,4.746629333E-1,8.473728790E0,1.188378754E0,8.569809133E0
5.813191750E0,5.860313416E-1,8.090076599E0,9.503736877E-1,8.166760818E0
5.823248750E0,6.638694763E-1,7.736062775E0,9.107061768E-1,7.817721898E0
5.833304750E0,8.574169922E-1,7.562723236E0,9.232800293E-1,7.666967631E0
5.843361750E0,1.031205597E0,7.598199463E0,7.885601807E-1,7.708297297E0
5.853418750E0,1.092278595E0,7.760012970E0,5.577401733E-1,7.856331709E0
5.863475750E0,1.095871124E0,7.982899475E0,1.402583313E-1,8.058988147E0
5.873532750E0,1.241218872E0,8.397387543E0,-6.057902527E-1,8.510212903E0
5.883589750E0,1.258133698E0,9.207802277E0,-1.111289062E0,9.359566579E0
5.893646750E0,7.194039917E-1,1.055275543E1,-8.773255920E-1,1.061357101E1
5.903703750E0,-3.282673645E-1,1.200054474E1,-7.012916565E-1,1.202549972E1
5.913760750E0,-1.150657196E0,1.332933151E1,-8.442443848E-1,1.340551525E1
5.923817750E0,-1.791474609E0,1.440978470E1,-2.547702026E-1,1.452295370E1
5.933874750E0,-2.437980194E0,1.447265396E1,9.969268799E-1,1.471038148E1
5.943931750E0,-3.495680695E0,1.364996475E1,1.091230774E0,1.413266096E1
5.953988750E0,-4.864434357E0,1.300839890E1,-6.950047302E-1,1.390554548E1
5.964044750E0,-5.638474731E0,1.317230804E1,-2.487527161E0,1.454269191E1
5.974101750E0,-5.290298767E0,1.385294266E1,-1.351838837E0,1.489022329E1
5.984158750E0,-4.284989319E0,1.462084579E1,7.810757446E-1,1.525582985E1
5.994215750E0,-3.640729065E0,1.500779114E1,4.053570557E-1,1.544839854E1
6.004272750E0,-3.647614746E0,1.449420914E1,-1.218765564E0,1.499575211E1
6.014329750E0,-3.106639709E0,1.392658951E1,-1.449735260E0,1.434234423E1
6.024386750E0,-1.961371307E0,1.394320496E1,-2.020797729E-2,1.408049538E1
6.034443750E0,-1.389410706E0,1.358544891E1,1.553319855E0,1.374436928E1
6.044500750E0,-1.235530701E0,1.353425537E1,1.198108521E0,1.364324260E1
6.054557750E0,4.475692749E-1,1.568213882E1,-5.384303284E-1,1.569776110E1
6.064614750E0,2.426005096E0,1.577329926E1,-4.519102478E-1,1.596517125E1
6.074671750E0,4.655468903E0,1.586700439E1,2.197131042E0,1.668120511E1
6.084728750E0,5.471571808E0,1.535806274E1,4.404291229E0,1.688804224E1
6.094784750E0,4.714895325E0,1.513951721E1,5.037175140E0,1.663755850E1
6.104841750E0,3.879482574E0,1.538680298E1,4.750221863E0,1.656407856E1
6.114898750E0,3.255130920E0,1.577449677E1,3.793860626E0,1.654762835E1
6.124955750E0,2.842738495E0,1.575054657E1,2.178869019E0,1.615265766E1
6.135012750E0,2.556383972E0,1.503653137E1,3.794609070E-1,1.525701037E1
6.145069750E0,3.322341156E0,1.384021912E1,-1.589544525E0,1.432188073E1
6.155126750E0,5.057981873E0,1.286963745E1,-3.695664825E0,1.431323469E1
6.165183750E0,6.842570801E0,1.274868896E1,-4.026027832E0,1.501861330E1
6.175240750E0,7.383845215E0,1.280706757E1,-1.533411255E0,1.486248633E1
6.185297750E0,4.597389679E0,1.182121765E1,5.995033264E-1,1.269789679E1
6.195354750E0,3.858376465E0,1.004111938E1,2.550097046E0,1.105505054E1
6.205411750E0,3.400778046E0,8.454568634E0,3.441493378E0,9.741093305E0
6.215468750E0,1.328188019E0,7.523804169E0,4.167783051E0,8.702995354E0
6.225524750E0,-3.463796997E-1,6.246510315E0,5.004243622E0,8.011324749E0
6.235581750E0,-7.420069885E-1,4.861440582E0,4.161496124E0,6.442222357E0
6.245638750E0,-6.444099426E-1,4.100872192E0,3.570674744E0,5.475594492E0
6.255695750E0,-3.194357300E-1,3.634741516E0,3.111429749E0,4.795245578E0
6.265752750E0,4.384382629E-1,3.411256256E0,2.444716187E0,4.219660483E0
6.275809750E0,1.142124939E0,3.346441040E0,1.819316711E0,3.976560110E0
6.285866750E0,1.567091217E0,2.975811768E0,1.569935303E0,3.711593649E0
6.295923750E0,1.786983948E0,1.971999207E0,9.012757874E-1,2.809695810E0
6.305980750E0,2.282154236E0,1.180594940E0,9.864486694E-2,2.571334902E0
6.316037750E0,2.459685059E0,5.023553467E-1,-5.451663208E-1,2.568972129E0
6.326094750E0,2.634371796E0,-3.384461975E-1,-1.258582764E0,2.939131021E0
6.336151750E0,2.958747253E0,-8.551716614E-1,-1.287921753E0,3.338299915E0
6.346208750E0,2.798280945E0,-1.058448944E0,-1.453028412E0,3.325955799E0
6.356265750E0,2.195634155E0,-6.661148071E-1,-2.088756409E0,3.102808666E0
6.366322333E0,2.121089172E0,9.295669556E-2,-3.046764221E0,3.713547151E0
6.376379333E0,2.013762360E0,1.050216064E0,-4.141737213E0,4.723577010E0
6.386436333E0,1.708397369E0,2.204166412E0,-5.274581451E0,5.966421091E0
6.396493333E0,1.639839935E0,4.383634186E0,-7.128476257E0,8.527631409E0
6.406550333E0,1.252894592E0,7.482340393E0,-9.886640625E0,1.246197518E1
6.416607333E0,6.608757019E-1,1.336465805E1,-1.274180328E1,1.847713161E1
6.426664333E0,3.839515686E-1,2.191742249E1,-1.231713638E1,2.514423743E1
6.436721333E0,-5.962101746E-1,2.759885788E1,-1.094718521E1,2.969668815E1
6.446778333E0,-2.421065369E0,2.759601379E1,-1.127814697E1,2.990983340E1
6.456835333E0,-3.321592712E0,2.275852341E1,-1.029933243E1,2.520038917E1
6.466892333E0,-3.014132080E0,1.560100754E1,-6.811884613E0,1.728809418E1
6.476949333E0,-1.707948303E0,9.055119781E0,-4.493954773E0,1.025221494E1
6.487006333E0,-7.679031372E-1,4.824916534E0,-4.532873840E0,6.664566006E0
6.497063333E0,6.641688538E-1,1.809137878E0,-5.794899445E0,6.106959939E0
6.507119333E0,2.728825378E0,7.626640320E-1,-8.236771545E0,8.710485053E0
6.517176333E0,2.996917877E0,4.394112396E0,-1.027373566E1,1.156889731E1
6.527233333E0,1.749711456E0,9.293124847E0,-1.073313034E1,1.430467569E1
6.537290333E0,8.352630615E-2,1.333142715E1,-5.555696869E0,1.444298080E1
6.547347333E0,6.923103333E-1,1.747960098E1,5.072351990E0,1.821385458E1
6.557404333E0,3.576961670E0,2.079535583E1,9.307045898E0,2.306214609E1
6.567461333E0,6.965165863E0,2.083786743E1,6.393804016E0,2.288254759E1
6.577518333E0,9.084309082E0,1.653641235E1,1.466500397E0,1.892427617E1
6.587575333E0,1.102562210E1,1.225067459E1,-4.318519592E0,1.703798645E1
6.597632333E0,1.166688858E1,8.284222870E0,-6.020330658E0,1.552382102E1
6.607689333E0,6.130501556E0,5.278623047E0,-1.475332031E0,8.223351823E0
6.617746333E0,1.580712891E0,4.464615784E0,1.455273743E0,4.954721890E0
6.627803333E0,1.022972717E0,3.690425720E0,6.976991272E-1,3.892621128E0
6.637860333E0,1.379980316E0,3.247047729E0,9.068142700E-1,3.642797929E0
6.647916333E0,1.279988251E0,3.871848450E0,2.488125916E0,4.777065094E0
6.657973333E0,9.551637268E-1,5.010530548E0,2.373015289E0,5.625740456E0
6.668030333E0,1.009650421E0,6.099965057E0,1.869911499E0,6.459530686E0
6.678087333E0,1.473835144E0,7.257208557E0,2.261197815E0,7.742885872E0
6.688144333E0,3.409759369E0,9.668095093E0,4.465813293E0,1.118221848E1
6.698201333E0,7.060218201E0,1.278715897E1,8.105045471E0,1.670478607E1
6.708258333E0,8.118517456E0,1.375908783E1,9.120982819E0,1.839606347E1
6.718315333E0,5.457201691E0,1.329699875E1,7.878117371E0,1.639072785E1
6.728372333E0,2.133513336E0,1.195728470E1,5.861361237E0,1.348644105E1
6.738429333E0,7.695497131E-1,1.030352371E1,3.929179230E0,1.105410589E1
6.748486333E0,2.513273621E-1,8.655301208E0,2.615361328E0,9.045303717E0
6.758543333E0,1.969903564E-1,7.610473938E0,1.726210327E0,7.806274454E0
6.768600333E0,2.612068176E-1,7.240144043E0,1.232536926E0,7.348949724E0
6.778657333E0,-2.559677124E-2,7.231162720E0,-2.196981354E0,7.557585365E0
6.788713333E0,-6.397695923E-1,7.463030548E0,-9.063951416E0,1.175845846E1
6.798770333E0,2.914439392E-1,8.132139130E0,-6.840325470E0,1.063045996E1
6.808827333E0,1.270258484E0,8.598569183E0,-3.281176758E0,9.290590376E0
6.818884333E0,1.765877838E0,8.808732147E0,-3.441343689E-1,8.990579239E0
6.828941333E0,1.959874420E0,9.009315033E0,2.222129059E0,9.484024602E0
6.838998333E0,1.359622650E0,8.811576233E0,2.992277527E0,9.404582620E0
6.849055333E0,4.724176025E-1,8.150700531E0,1.841021576E0,8.369376200E0
6.859112333E0,-3.953279114E-1,7.650440826E0,8.131091309E-1,7.703679345E0
6.869169333E0,-8.623567200E-1,7.499404907E0,5.081932068E-1,7.565909953E0
6.879226333E0,-4.730163574E-2,7.547904053E0,7.804769897E-1,7.588296078E0
6.889283333E0,5.855822754E-1,7.746540985E0,1.134790192E0,7.851086079E0
6.899340333E0,8.048762512E-1,8.230334930E0,2.918930054E-1,8.274747149E0
6.909397333E0,1.037492523E0,9.044042816E0,-1.318158875E0,9.198295713E0
6.919454333E0,1.415606232E0,9.893226929E0,-1.750310211E0,1.014610595E1
6.929511333E0,1.819765778E0,1.048464706E1,-4.757107544E-1,1.065202667E1
6.939567333E0,1.916913757E0,1.067250641E1,9.481283569E-1,1.088466347E1
6.949624333E0,1.605411530E0,1.062101349E1,1.335373077E0,1.082434732E1
6.959681333E0,8.821156311E-1,1.090632019E1,2.799179077E-1,1.094551516E1
6.969738333E0,-1.884580994E-1,1.186447769E1,-1.612746277E0,1.197506985E1
6.979795333E0,-9.836045837E-1,1.288700134E1,-1.578916626E0,1.302057062E1
6.989852333E0,-7.171586609E-1,1.312261139E1,7.265890503E-1,1.316226340E1
6.999909333E0,-5.195695496E-1,1.240784775E1,1.664388885E0,1.252975772E1
7.009966333E0,-1.104852448E0,1.183319275E1,1.275048523E0,1.195286151E1
7.020023333E0,-1.681004333E0,1.221624619E1,3.423381042E-1,1.233611129E1
7.030080333E0,-1.872905273E0,1.285466858E1,-4.120930481E-1,1.299692653E1
7.040137333E0,-1.360221405E0,1.284493881E1,-6.126759338E-1,1.293128096E1
7.050194333E0,-1.331930237E0,1.286589523E1,-7.604187012E-2,1.293487846E1
7.060251333E0,-1.369951172E0,1.356104965E1,1.655706940E0,1.373026581E1
7.070308333E0,1.552272034E-1,1.444975159E1,1.218316498E0,1.450185200E1
7.080364333E0,1.792672119E0,1.455737778E1,-1.302441559E0,1.472505603E1
7.090421333E0,1.345402222E0,1.403346725E1,-1.764530640E0,1.420781048E1
7.100478333E0,3.390449524E-1,1.332289490E1,3.800596619E-1,1.333262635E1
7.110535333E0,4.710704041E-1,1.308593765E1,2.059866486E0,1.325544120E1
7.120592333E0,2.124082947E-1,1.334684509E1,1.130000153E0,1.339627902E1
7.130649333E0,2.649490356E-1,1.424482773E1,-1.581461334E0,1.433479456E1
7.140706333E0,2.679428101E0,1.608300522E1,-2.000739441E0,1.642697020E1
7.150763333E0,5.211263123E0,1.644360535E1,1.257534943E0,1.729539864E1
7.160820333E0,5.599855042E0,1.584215607E1,3.768263855E0,1.722010737E1
7.170877333E0,5.475164337E0,1.474972778E1,3.870501251E0,1.620224287E1
7.180934333E0,4.989424438E0,1.418360504E1,3.522325287E0,1.544266116E1
7.190991333E0,3.863465881E0,1.425859909E1,2.518961792E0,1.498596627E1
7.201048333E0,3.030148773E0,1.423988800E1,1.069825287E0,1.459797034E1
7.211105333E0,2.889591064E0,1.394679749E1,-1.960922241E-1,1.424434445E1
7.221162333E0,3.505560150E0,1.310090652E1,-1.319506073E0,1.362585043E1
7.231218333E0,5.485343170E0,1.263148270E1,-2.130669250E0,1.393495950E1
7.241275333E0,1.057535843E1,1.302157150E1,-1.823957062E0,1.687383625E1
7.251332333E0,1.070468948E1,1.273162445E1,-1.195563812E0,1.667675061E1
7.261389333E0,6.352789307E0,1.208302322E1,-8.086184692E-1,1.367520552E1
7.271446333E0,3.129542084E0,1.111992599E1,1.200802917E0,1.161416013E1
7.281503333E0,1.081950073E0,9.929152222E0,4.257147217E0,1.085734692E1
7.291560333E0,-2.921923828E-1,8.867559814E0,6.838678894E0,1.120207670E1
7.301617333E0,-1.281634827E0,7.526348877E0,6.395600281E0,9.959529015E0
7.311674333E0,-1.515598297E0,5.849386139E0,4.624333649E0,7.608995866E0
7.321731333E0,-1.286873932E0,4.356989594E0,3.467539215E0,5.715175504E0
7.331788333E0,-7.909552002E-1,3.017125854E0,2.671793976E0,4.106962576E0
7.341845333E0,-2.480342102E-1,2.099983063E0,2.567910004E0,3.326501408E0
7.351902333E0,5.746549988E-1,2.148631897E0,2.610122223E0,3.429225192E0
7.361959333E0,1.637893982E0,2.443368988E0,1.880988464E0,3.491542111E0
7.372015500E0,2.252964935E0,2.369422760E0,1.347647552E0,3.536406247E0
7.382071500E0,2.913092194E0,2.131717072E0,6.512956238E-1,3.668038957E0
7.392128500E0,3.399580536E0,1.821262665E0,7.155120850E-2,3.857365045E0
7.402185500E0,3.406615906E0,1.309776306E0,-3.767665100E-1,3.669127813E0
7.412242500E0,3.396137695E0,5.685177612E-1,-7.981402588E-1,3.534684082E0
7.422299500E0,3.209475861E0,3.592529297E-3,-1.483714600E0,3.535838970E0
7.432356500E0,3.360661469E0,-2.050735474E-1,-2.686164093E0,4.307154304E0
7.442413500E0,3.211870880E0,-9.340576172E-2,-3.635340271E0,4.851859239E0
7.452470500E0,2.693798218E0,3.544628906E-1,-4.261488190E0,5.053956309E0
7.462527500E0,2.270179138E0,7.170089722E-1,-4.733756104E0,5.298703807E0
7.472584500E0,1.676214294E0,1.344204712E0,-5.382057953E0,5.795095209E0
7.482641500E0,1.483265533E0,3.331621857E0,-7.166946259E0,8.041448844E0
7.492698500E0,8.261320496E-1,7.150031433E0,-9.859397278E0,1.220709459E1
7.502755500E0,-6.102809143E-1,1.420246582E1,-1.117725677E1,1.808351590E1
7.512812500E0,-5.083428955E-1,2.395483566E1,-1.137993530E1,2.652537449E1
7.522869500E0,-4.840933228E-1,2.937087296E1,-1.308219543E1,3.215628029E1
7.532926500E0,-6.007008362E-1,2.849040390E1,-1.361314133E1,3.158134849E1
7.542982500E0,-6.586303711E-3,2.193927704E1,-9.775870972E0,2.401873381E1
7.553039500E0,2.125579834E-2,1.482097961E1,-5.862409058E0,1.593831009E1
7.563096500E0,-4.640350342E-2,1.001282822E1,-4.399201813E0,1.093672066E1
7.573153500E0,-5.688171387E-3,6.830446014E0,-4.249812469E0,8.044621255E0
7.583210500E0,1.927841034E0,4.908293152E0,-6.361171875E0,8.262712650E0
7.593267500E0,4.014651489E0,5.436394958E0,-9.735455017E0,1.185119830E1
7.603324500E0,3.052602081E0,8.169860687E0,-1.227881607E1,1.506102013E1
7.613381500E0,4.052073669E-1,1.282458115E1,-8.834478607E0,1.557825686E1
7.623438500E0,-1.262175293E0,1.845227829E1,2.605481873E0,1.867801372E1
7.633495500E0,5.164260864E-2,2.097752701E1,1.118279526E1,2.377213108E1
7.643552500E0,4.904700623E0,1.779319885E1,8.721014557E0,2.041347860E1
7.653609500E0,6.902745667E0,1.149025589E1,6.822512512E0,1.504063014E1
7.663666500E0,7.076085205E0,7.217241669E0,1.201850739E0,1.017860523E1
7.673723500E0,8.238268433E0,5.295537872E0,-9.042845306E0,1.332984769E1
7.683780500E0,6.341562653E0,2.772085419E0,-6.900200958E0,9.773057235E0
7.693837500E0,2.305954742E0,2.055226135E0,2.504292297E-1,3.099047683E0
7.703893500E0,8.535250854E-1,2.884651337E0,1.619631958E0,3.416566417E0
7.713950500E0,4.647834778E-1,3.535797272E0,1.294508057E0,3.793894719E0
7.724007500E0,3.556604004E-1,4.520749054E0,2.358794861E0,5.111514406E0
7.734064500E0,3.682342529E-1,5.646557922E0,2.376607819E0,6.137383609E0
7.744121500E0,7.231462097E-1,7.089706879E0,1.978735199E0,7.396098773E0
7.754178500E0,1.440604248E0,8.310268707E0,1.753902740E0,8.614643429E0
7.764235500E0,2.947819977E0,9.449250183E0,2.316582642E0,1.016585101E1
7.774292500E0,7.021149445E0,1.242625946E1,5.816753998E0,1.541243299E1
7.784349500E0,1.009321106E1,1.500449799E1,8.758736115E0,2.009286758E1
7.794406500E0,8.046666870E0,1.506108032E1,7.813751221E0,1.877870327E1
7.804463500E0,4.311334534E0,1.336121521E1,5.748945007E0,1.517102653E1
7.814520500E0,1.985620880E0,1.152139114E1,4.046535187E0,1.237172547E1
7.824577500E0,9.231303406E-1,9.718540192E0,2.583777008E0,1.009842051E1
7.834634500E0,4.484674072E-1,8.343798981E0,1.778601379E0,8.543039700E0
7.844691500E0,-3.710783386E-1,7.263196106E0,-3.034489746E0,7.880345476E0
7.854748500E0,-1.071172485E0,6.669979706E0,-9.408834229E0,1.158284081E1
7.864804500E0,3.338058472E-1,7.343728638E0,-7.641758881E0,1.060369065E1
7.874861500E0,1.478176117E0,8.172106018E0,-4.286785583E0,9.345846780E0
7.884918500E0,1.657952271E0,8.464747467E0,-4.523593140E-1,8.637440846E0
7.894975500E0,1.446442108E0,8.660690002E0,1.638792114E0,8.932266548E0
7.905032500E0,1.299298096E0,8.591084747E0,1.105002136E0,8.758763748E0
7.915089500E0,8.562194824E-1,8.416847076E0,-4.165837097E-1,8.470535313E0
7.925146500E0,6.542893982E-1,7.984246674E0,-1.145717468E0,8.092524827E0
7.935203500E0,9.502239990E-1,7.700736237E0,-9.774673462E-2,7.759756353E0
7.945260500E0,1.783241730E0,7.640860748E0,2.105222168E0,8.123710016E0
7.955317500E0,2.111658783E0,7.546407166E0,3.385509796E0,8.536336480E0
7.965374500E0,1.988914032E0,7.414681091E0,3.000809784E0,8.242459225E0
7.975431500E0,1.737287292E0,7.432344360E0,1.792522430E0,7.840347345E0
7.985488500E0,1.654060364E0,7.625293121E0,1.267863464E-1,7.803658479E0
7.995545500E0,1.811832275E0,8.290360107E0,-1.746268616E0,8.663847932E0
8.005602500E0,2.242486725E0,9.123826904E0,-2.139051819E0,9.635793002E0
8.015659500E0,2.677781525E0,9.709259491E0,-6.486012268E-1,1.009261697E1
8.025716500E0,2.672093353E0,1.022897873E1,1.055305481E0,1.062477098E1
8.035772500E0,1.971699829E0,1.079091019E1,1.838476868E0,1.112255996E1
8.045829500E0,3.483256531E-1,1.169532944E1,1.094972992E0,1.175163934E1
8.055886500E0,-8.225395203E-1,1.284448975E1,-2.360291748E0,1.308542950E1
8.065943500E0,-8.014334106E-1,1.350371887E1,-3.039130096E0,1.386466843E1
8.076000500E0,-4.164340210E-1,1.323802139E1,3.704795837E-1,1.324975029E1
8.086057500E0,-6.493496704E-1,1.305854462E1,2.262844391E0,1.326905073E1
8.096114500E0,-1.703457642E0,1.346584763E1,8.402027893E-1,1.359914560E1
8.106171500E0,-2.852019196E0,1.401939651E1,-1.798959045E0,1.441921446E1
8.116228500E0,-3.614234161E0,1.397059799E1,-1.630708923E0,1.452237957E1
8.126285500E0,-3.453318787E0,1.380803604E1,1.046324158E-1,1.423370008E1
8.136342500E0,-2.632575531E0,1.441577225E1,9.180409241E-1,1.468290647E1
8.146399500E0,-1.393003235E0,1.482801498E1,2.930905151E-1,1.489618704E1
8.156456500E0,-6.759942627E-1,1.405128021E1,-1.223106537E0,1.412060315E1
8.166513500E0,-8.322692871E-2,1.321287369E1,-1.500928802E0,1.329811058E1
8.176570500E0,9.162446594E-1,1.318997131E1,-7.454498291E-2,1.322196674E1
8.186627500E0,1.762285309E0,1.306049057E1,1.206940155E0,1.323400045E1
8.196684500E0,1.746418304E0,1.280961227E1,6.825805664E-1,1.294612142E1
8.206740500E0,3.168461151E0,1.464883759E1,-1.229842529E0,1.503795536E1
8.216797500E0,6.216572571E0,1.597762436E1,-5.870791626E-1,1.715444306E1
8.226854500E0,8.109236755E0,1.614901794E1,2.118843842E0,1.819450468E1
8.236911500E0,8.002059631E0,1.630394577E1,3.536695404E0,1.850296788E1
8.246968500E0,6.598877563E0,1.640229126E1,4.034260712E0,1.813437628E1
8.257025500E0,5.276677094E0,1.671079971E1,3.372337189E0,1.784563830E1
8.267082500E0,4.543052673E0,1.700254303E1,2.169139252E0,1.773220128E1
8.277139500E0,5.187163239E0,1.617626129E1,3.986210632E-1,1.699226267E1
8.287196500E0,8.178093567E0,1.450678299E1,-1.742676086E0,1.674410007E1
8.297253500E0,1.040830582E1,1.280347504E1,-3.780388641E0,1.692788059E1
8.307310500E0,1.145148651E1,1.145657593E1,-4.388274536E0,1.678233085E1
8.317367500E0,8.624615021E0,1.030352371E1,-2.446662140E0,1.365769896E1
8.327424500E0,3.099005585E0,9.249565430E0,9.744735718E-2,9.755398108E0
8.337481500E0,3.430865479E-1,8.473429413E0,3.300785980E0,9.100104531E0
8.347538500E0,1.134640503E-1,8.323740692E0,4.183200989E0,9.316474854E0
8.357595500E0,-1.425036621E-1,8.341703339E0,3.969295807E0,9.239027605E0
8.367652500E0,-1.191372528E0,8.231831818E0,3.742966461E0,9.120977004E0
8.377710208E0,-1.655856628E0,7.780969391E0,3.312162323E0,8.617178488E0
8.387766208E0,-1.822909241E0,6.419849854E0,2.936892700E0,7.291283081E0
8.397823208E0,-1.645827484E0,4.838538208E0,2.863395538E0,5.858262038E0
8.407880208E0,-8.493338013E-1,3.752247162E0,3.250041504E0,5.036218467E0
8.417937208E0,5.734574890E-1,3.193309479E0,3.763324127E0,4.968771217E0
8.427994208E0,1.779050446E0,3.126997375E0,4.382885742E0,5.670345713E0
8.438051208E0,2.726130981E0,3.128494263E0,3.721411285E0,5.573882707E0
8.448108208E0,3.743415527E0,2.802172852E0,1.903292084E0,5.048549619E0
8.458165208E0,4.089196472E0,1.949396210E0,6.276448059E-1,4.573358872E0
8.468222208E0,4.145928497E0,1.069376221E0,-5.463638306E-1,4.316341280E0
8.478279208E0,4.272864532E0,4.959187317E-1,-1.223405914E0,4.472139167E0
8.488336208E0,4.520150299E0,-1.701960754E-1,-1.366358643E0,4.725215484E0
8.498393208E0,4.242926788E0,-8.839118958E-1,-1.857936401E0,4.715469822E0
8.508450208E0,3.687132568E0,-1.083446960E0,-2.829565887E0,4.772341878E0
8.518507208E0,3.215313721E0,-6.843768311E-1,-3.709136810E0,4.956239486E0
8.528564208E0,2.780018921E0,-1.721420288E-1,-4.314328308E0,5.135325387E0
8.538621208E0,2.457140350E0,6.345304871E-1,-5.229225769E0,5.812483960E0
8.548678208E0,2.147584076E0,2.405497742E0,-7.450007629E0,8.117952354E0
8.558734208E0,1.108744354E0,6.089786224E0,-1.168724625E1,1.322522344E1
8.568791208E0,-6.674620056E-1,1.224348953E1,-1.466709961E1,1.911733121E1
8.578848208E0,-1.670226746E0,2.157957504E1,-1.254975266E1,2.501927273E1
8.588905208E0,-1.664688263E0,2.809028595E1,-1.228210922E1,3.070318483E1
8.598962208E0,-1.220262451E0,2.772294983E1,-1.345477066E1,3.083961480E1
8.609019208E0,-1.588047638E0,2.132181107E1,-1.045830185E1,2.380163020E1
8.619076208E0,-1.980830841E0,1.410606628E1,-6.858737183E0,1.580971450E1
8.629133208E0,-9.074130249E-1,9.443112946E0,-5.948779449E0,1.119748889E1
8.639190208E0,1.172362061E0,6.569239197E0,-5.752687225E0,8.810377219E0
8.649247208E0,3.573219452E0,5.346731415E0,-6.296955414E0,9.000393411E0
8.659304208E0,5.514682159E0,6.599326630E0,-8.385711823E0,1.201178563E1
8.669361208E0,6.789580994E0,1.034064651E1,-1.078297668E1,1.641036156E1
8.679418208E0,5.838159485E0,1.580458420E1,-1.039827667E1,1.979881677E1
8.689475208E0,2.608176270E0,1.943273941E1,-8.632548523E-1,1.962598159E1
8.699532208E0,1.520238647E0,2.033102142E1,7.367678833E0,2.167819755E1
8.709589208E0,1.647474060E0,1.664044601E1,7.669151917E0,1.839658951E1
8.719646208E0,2.015708313E0,9.790839844E0,7.472161560E0,1.248025734E1
8.729703208E0,2.729573822E0,5.866300964E0,3.620371399E0,7.414253120E0
8.739760208E0,3.469036102E0,4.383634186E0,-3.041076050E0,6.363851326E0
8.749816208E0,3.135829010E0,3.247047729E0,-3.287912750E0,5.584542308E0
8.759873208E0,1.840123444E0,3.363655243E0,-1.200952606E0,4.017775260E0
8.769930208E0,1.423539734E0,3.605252838E0,-5.822891235E-2,3.876558268E0
8.779987208E0,1.248703308E0,4.039200439E0,1.001567230E0,4.344828772E0
8.790044208E0,1.268013153E0,5.088668060E0,1.985471191E0,5.607539196E0
8.800101208E0,1.531764679E0,6.321953430E0,1.761087799E0,6.739052488E0
8.810158208E0,2.269879761E0,7.523504791E0,1.349443817E0,7.973485881E0
8.820215208E0,2.737357635E0,8.505762177E0,1.066981201E0,8.998864701E0
8.830272208E0,3.844605103E0,9.844278717E0,1.075962524E0,1.062301780E1
8.840329208E0,6.919361115E0,1.284733383E1,2.939736786E0,1.488534841E1
8.850386208E0,9.088799744E0,1.531884430E1,5.445675659E0,1.862602091E1
8.860443208E0,7.113956451E0,1.541344757E1,6.512956238E0,1.818244597E1
8.870500208E0,4.326153717E0,1.393736710E1,4.537663879E0,1.528254563E1
8.880557208E0,2.519261169E0,1.230501160E1,1.820514221E0,1.269150343E1
8.890614208E0,8.232879639E-1,1.043016037E1,-2.435435486E0,1.074231793E1
8.900671208E0,-3.658392334E-1,8.559201050E0,-5.251230011E0,1.004834203E1
8.910728208E0,-8.592132568E-2,7.395371246E0,-3.671265564E0,8.256941879E0
8.920785208E0,4.605921936E-1,7.119195557E0,-1.174008636E0,7.230033667E0
8.930841208E0,1.562750244E-1,6.874753876E0,-7.960446167E-1,6.922452583E0
8.940898208E0,-8.430468750E-1,6.293512573E0,-2.176024933E0,6.712236069E0
8.950955208E0,-1.525477753E0,6.893165588E0,-4.306544495E-1,7.073067047E0
8.961012208E0,-9.630972290E-1,7.908504181E0,3.248245239E-1,7.973550378E0
8.971069208E0,6.366261292E-1,8.495583344E0,-7.571255493E-1,8.552980081E0
8.981126208E0,1.429527283E0,8.746611328E0,-1.525926819E0,8.993064585E0
8.991183208E0,1.323248291E0,8.569379883E0,-1.220861206E0,8.756469591E0
9.001240208E0,1.256936188E0,8.162525940E0,3.065625000E-1,8.264423686E0
9.011297208E0,1.054107971E0,7.741451569E0,1.873054962E0,8.034273514E0
9.021354208E0,8.786727905E-1,7.453300781E0,2.645897827E0,7.957671375E0
9.031411208E0,8.030799866E-1,7.321874084E0,2.670596466E0,7.834976902E0
9.041468208E0,1.029559021E0,7.316784668E0,1.600771179E0,7.560277642E0
9.051525208E0,1.279688873E0,7.419620819E0,4.501139832E-1,7.542610908E0
9.061582208E0,1.750160522E0,7.855065308E0,-4.291575623E-1,8.059112175E0
9.071639208E0,2.350861359E0,8.505013733E0,-8.446934509E-1,8.864271812E0
9.081696208E0,2.780318298E0,9.165440369E0,-6.200106812E-1,9.597910202E0
9.091753208E0,3.067870331E0,9.476493530E0,-1.607656860E-1,9.962008011E0
9.101810208E0,3.146606598E0,9.705666962E0,2.877017212E-1,1.020705033E1
9.111867208E0,2.322570190E0,1.011611343E1,8.255332947E-1,1.041208858E1
9.121923208E0,4.727169800E-1,1.077833633E1,6.493496704E-1,1.080822143E1
9.131980208E0,-2.037263489E-1,1.161300064E1,-9.735754395E-1,1.165551961E1
9.142037208E0,-8.891510010E-2,1.206865311E1,-9.913883972E-1,1.210963024E1
9.152094208E0,-4.297563171E-1,1.233045868E1,3.929328918E-1,1.234420099E1
9.162151208E0,-1.433568878E0,1.275767029E1,8.175997925E-1,1.286397063E1
9.172208208E0,-2.209854584E0,1.320868240E1,-6.628216553E-1,1.340865693E1
9.182265208E0,-2.787203979E0,1.367017273E1,-1.884730682E0,1.407815109E1
9.192322208E0,-3.171305237E0,1.375923752E1,-1.201251984E0,1.417098445E1
9.202379208E0,-3.050207062E0,1.396326324E1,1.910028076E-1,1.429380865E1
9.212436208E0,-2.501448212E0,1.415456543E1,5.373825073E-1,1.438394055E1
9.222493208E0,-1.389410706E0,1.443478271E1,-1.673519897E-1,1.450246258E1
9.232550208E0,-5.278024292E-1,1.449301163E1,-6.683601379E-1,1.451801180E1
9.242607208E0,-3.180885315E-1,1.451441711E1,4.818479919E-1,1.452589625E1
9.252664208E0,-1.020877075E-1,1.421713531E1,8.858578491E-1,1.424507292E1
9.262721208E0,8.399034119E-1,1.364337845E1,-7.300318909E-1,1.368868729E1
9.272778208E0,3.049757996E0,1.456276657E1,-2.516566772E0,1.509000670E1
9.282835208E0,6.420897675E0,1.555789719E1,-2.700983276E0,1.704615506E1
9.292892208E0,8.005502472E0,1.544099030E1,-7.750881958E-1,1.741014109E1
9.302949208E0,7.917036438E0,1.560235474E1,2.073937225E0,1.761857414E1
9.313006208E0,6.989714813E0,1.624092682E1,3.597019958E0,1.804334696E1
9.323062208E0,5.573809204E0,1.732452347E1,3.726800079E0,1.857674625E1
9.333119208E0,4.643194427E0,1.772688675E1,3.086731110E0,1.858304812E1
9.343176208E0,5.860313416E0,1.688488770E1,2.038011932E0,1.798877979E1
9.353233208E0,9.144334259E0,1.523636581E1,1.076261902E0,1.780236029E1
9.363290208E0,1.214948502E1,1.387898849E1,-2.788551178E0,1.865508846E1
9.373347208E0,1.186687271E1,1.253912476E1,-6.102809143E0,1.831110584E1
9.383404208E0,7.241341553E0,1.119581818E1,-4.989574127E0,1.423654530E1
9.393461208E0,2.521207123E0,1.031280441E1,-2.630330200E0,1.093750690E1
9.403518208E0,1.308279419E-1,9.518855438E0,-5.739065552E-1,9.537037986E0
9.413575208E0,-7.949967957E-1,9.757309570E0,1.405577087E0,9.890033210E0
9.423632208E0,-1.005309448E0,1.044812302E1,2.856809235E0,1.087820209E1
9.433689208E0,-1.721270599E0,9.291178894E0,4.596641235E0,1.050799164E1
9.443746208E0,-2.655627594E0,8.091872864E0,5.854176178E0,1.033451223E1
9.453803208E0,-3.399879913E0,6.115981750E0,4.579427032E0,8.362748839E0
9.463860208E0,-2.883004761E0,4.245621185E0,3.431015167E0,6.173239083E0
9.473917208E0,-1.376387787E0,3.230282593E0,2.671943665E0,4.412306870E0
9.483974208E0,2.040257263E-1,2.881657562E0,1.871258698E0,3.441974131E0
9.494031208E0,1.080004120E0,2.643951874E0,2.056573334E0,3.519429540E0
9.504088208E0,1.573078766E0,2.678979034E0,2.516117706E0,3.997793614E0
9.514145208E0,2.028880920E0,2.900967407E0,1.570384369E0,3.872735048E0
9.524202208E0,2.370620270E0,2.870879974E0,-1.703457642E-1,3.727037694E0
9.534258208E0,2.417323151E0,2.320923615E0,-1.228195953E0,3.569117950E0
9.544315208E0,2.595452728E0,1.523382111E0,-1.719773712E0,3.466221219E0
9.554372208E0,3.125949554E0,9.398954773E-1,-1.813628540E0,3.734195041E0
9.564429208E0,3.512745209E0,4.510121155E-1,-1.784588928E0,3.965797331E0
9.574486208E0,3.424877930E0,2.763253784E-1,-1.623224487E0,3.800131877E0
9.584543208E0,3.040177917E0,2.362088013E-1,-1.575174408E0,3.432149586E0
9.594600208E0,2.509830780E0,3.968247986E-1,-1.622925110E0,3.015063246E0
9.604657208E0,1.891017609E0,1.270108795E0,-1.690584412E0,2.836758643E0
9.614714208E0,9.605525208E-1,2.342778168E0,-1.915267181E0,3.174825832E0
9.624771208E0,3.103047180E-1,2.966082001E0,-2.197430420E0,3.704407092E0
9.634828208E0,4.567002869E-1,3.753294983E0,-3.116369476E0,4.899750718E0
9.644885208E0,7.083270264E-1,5.515430603E0,-5.314847717E0,7.692158876E0
9.654942208E0,1.044228516E0,8.168663177E0,-8.996441803E0,1.219645180E1
9.664999208E0,1.560504913E0,1.277623169E1,-1.287861877E1,1.820785801E1
9.675056208E0,1.053509216E0,2.191727280E1,-1.411175446E1,2.608866310E1
9.685113208E0,-5.468128967E-1,3.014027298E1,-1.303758820E1,3.284377819E1
9.695170208E0,-1.886976013E0,3.246673508E1,-1.258822266E1,3.487281054E1
9.705227208E0,-3.171305237E0,2.695893860E1,-1.202254898E1,2.968809915E1
9.715284208E0,-4.361180878E0,1.842488525E1,-7.927215271E0,2.052649598E1
9.725341208E0,-4.970264282E0,1.161180313E1,-3.901786194E0,1.321973655E1
9.735397208E0,-4.522994385E0,5.133874054E0,-3.218307495E0,7.561193301E0
9.745454208E0,-2.875520325E0,3.306623840E-1,-5.649402008E0,6.347731705E0
9.755511208E0,-3.126997375E-1,-4.333488464E-1,-7.961943054E0,7.979856487E0
9.765568208E0,2.328108673E0,3.319197693E0,-8.086184692E0,9.045636860E0
9.775625208E0,4.974605255E0,8.170010376E0,-7.822732544E0,1.235681640E1
9.785682208E0,7.013814697E0,1.350297043E1,-5.601351929E0,1.621415895E1
9.795739208E0,7.701185303E0,2.022534119E1,-6.806346130E-1,2.165261981E1
9.805796208E0,6.026617584E0,2.655956909E1,6.290069733E0,2.795166913E1
9.815853208E0,5.220244446E0,2.448982315E1,6.778803406E0,2.594136784E1
9.825910208E0,7.218588867E0,1.362257172E1,6.760541382E0,1.683411433E1
9.835967208E0,7.867339783E0,6.724017334E0,2.340233459E0,1.061056723E1
9.846024208E0,8.208181000E0,3.763024750E0,-8.799301758E0,1.260802530E1
9.856081208E0,5.972280579E0,1.228794708E0,-1.027583130E1,1.194867276E1
9.866138208E0,2.886896667E0,7.262896729E-1,-4.657414856E0,5.527493301E0
9.876195208E0,1.450483704E0,2.568059692E0,-9.071136475E-2,2.950773138E0
9.886252208E0,1.520837402E0,4.811294861E0,3.410807190E0,6.090575533E0
9.896309208E0,2.014361115E0,6.056106262E0,6.178102570E0,8.882737479E0
9.906366208E0,1.556912384E0,7.027885437E0,5.778583374E0,9.230773299E0
9.916423208E0,1.539249115E0,8.269104309E0,4.017345886E0,9.321289711E0
9.926480208E0,2.202370148E0,9.302106171E0,2.699636078E0,9.933159036E0
9.936537208E0,3.042572937E0,9.535171509E0,2.018702087E0,1.021038216E1
9.946594208E0,4.337679749E0,9.628876648E0,1.236428833E0,1.063294349E1
9.956650208E0,5.131329346E0,9.897867279E0,9.448352051E-1,1.118887980E1
9.966707208E0,5.751340027E0,1.049557434E1,1.656455383E0,1.208217022E1
9.976764208E0,6.452631683E0,1.098670303E1,3.772604828E0,1.328821457E1
9.986821208E0,5.753735046E0,1.060260178E1,5.568420410E0,1.328638165E1
9.996878208E0,3.745062103E0,9.900861053E0,6.237229614E0,1.228639789E1
1.000693521E1,2.387235718E0,9.578730927E0,6.400540009E0,1.176511338E1
1.001699221E1,1.520987091E0,9.221573639E0,6.252198486E0,1.124459017E1
1.002704921E1,5.065466309E-1,8.498876495E0,5.847140808E0,1.032843390E1
1.003710621E1,-1.627116394E-1,8.022417297E0,5.241500244E0,9.584309009E0
1.004716321E1,-3.104544067E-1,8.125103760E0,4.227957916E0,9.164568794E0
1.005722021E1,-2.685415649E-1,8.456664276E0,3.402574310E0,9.119473515E0
1.006727721E1,-2.496807861E-1,9.025631104E0,2.939287720E0,9.495460474E0
1.007733421E1,-2.477348328E-1,9.765093384E0,2.285896454E0,1.003213556E1
1.008739121E1,-2.080673218E-1,1.012644196E1,1.730551300E0,1.027535530E1
1.009744821E1,-5.309458923E-1,1.000938538E1,-1.075363770E0,1.008097745E1
1.010750521E1,-2.394570465E0,9.415121155E0,-6.980284424E0,1.196256012E1
1.011756221E1,-2.604583740E0,8.986562347E0,-2.948568420E0,9.810005862E0
1.012761921E1,-1.823957062E0,9.012009430E0,1.995500336E0,9.408780735E0
1.013767621E1,-1.303339691E0,8.848699036E0,3.358266449E0,9.553853804E0
1.014773321E1,-8.416996765E-1,8.315358124E0,2.082469482E0,8.613380185E0
1.015779021E1,8.173004150E-2,8.160579987E0,-1.920206909E0,8.383849956E0
1.016784721E1,1.287921753E0,9.155411224E0,-2.604134674E0,9.605301376E0
1.017790321E1,2.030826874E0,1.016566040E1,-1.811233521E0,1.052356765E1
1.018796021E1,2.231110382E0,1.083192490E1,-2.219434662E0,1.127982007E1
1.019801721E1,1.412163391E0,1.123907822E1,-1.133592682E0,1.138402903E1
1.020807421E1,-4.177812195E-1,1.089823700E1,1.697919159E0,1.103761932E1
1.021813121E1,-1.171014862E0,1.017434235E1,2.592908020E0,1.056464339E1
1.022818821E1,-6.858737183E-1,1.010204269E1,9.954299927E-1,1.017411275E1
1.023824521E1,-4.192781067E-1,1.067624863E1,-8.647517395E-1,1.071941577E1
1.024830221E1,-4.505630493E-2,1.161629379E1,-1.463806000E0,1.170824665E1
1.025835921E1,5.134323120E-1,1.208766357E1,-1.272803192E0,1.216532989E1
1.026841621E1,5.725593567E-1,1.168829407E1,-3.442840576E-3,1.170230978E1
1.027847321E1,7.753875732E-2,1.140238861E1,1.446891174E0,1.149408423E1
1.028853021E1,-5.110372925E-1,1.178334641E1,1.754800873E0,1.192424999E1
1.029858721E1,-8.312214661E-1,1.233345245E1,9.268725586E-1,1.239613130E1
1.030864421E1,-1.098266144E0,1.262789017E1,1.830693054E-1,1.267688104E1
1.031870121E1,-1.183588715E0,1.286739212E1,4.336482239E-1,1.292898732E1
1.032875821E1,-1.796264648E-3,1.323128540E1,1.350042572E0,1.329998239E1
1.033881521E1,1.860181732E0,1.333936066E1,1.478924561E0,1.354939248E1
1.034887221E1,2.681224365E0,1.397763336E1,7.601193237E-1,1.425275341E1
1.035892921E1,3.139720917E0,1.486453903E1,2.097138977E-1,1.519395761E1
1.036898621E1,3.481011200E0,1.509850250E1,2.267784119E-1,1.549624617E1
1.037904271E1,3.186124420E0,1.448358124E1,2.839595032E-1,1.483260420E1
1.038909971E1,2.658771057E0,1.348815125E1,4.676275635E-1,1.375565204E1
1.039915571E1,2.490371246E0,1.320733521E1,3.008743286E-1,1.344344366E1
1.040921271E1,2.370470581E0,1.306617874E1,-1.645677795E0,1.338104679E1
1.041926971E1,3.511398010E0,1.339923615E1,-3.026855621E0,1.417855071E1
1.042932671E1,5.535339203E0,1.403945480E1,-1.505419464E0,1.516616494E1
1.043938371E1,6.607409821E0,1.445020065E1,6.253994751E-1,1.590148697E1
1.044944071E1,6.494993591E0,1.392269760E1,1.519490204E0,1.543811195E1
1.045949771E1,5.382956085E0,1.310824127E1,1.996697845E0,1.431045100E1
1.046955471E1,4.088747406E0,1.283550842E1,2.163301392E0,1.364360673E1
1.047961171E1,3.164868622E0,1.312889832E1,1.879192200E0,1.363509177E1
1.048966871E1,2.874173126E0,1.343995148E1,1.513802032E0,1.382695785E1
1.049972571E1,3.228636017E0,1.319356384E1,7.523355103E-1,1.360368428E1
1.050978271E1,4.113895111E0,1.261292130E1,-1.091530151E0,1.331169992E1
1.051983971E1,5.211712189E0,1.268522095E1,-3.349135437E0,1.411713436E1
1.052989671E1,5.461093597E0,1.299208282E1,-2.904859314E0,1.438943943E1
1.053995371E1,4.172573090E0,1.289777893E1,-2.951861572E-1,1.355913723E1
1.055001071E1,2.571801910E0,1.186058578E1,2.538421326E0,1.239884039E1
1.056006771E1,4.481680298E-1,1.024125320E1,5.577850800E0,1.167032739E1
1.057012471E1,-1.134341125E0,8.720565491E0,5.722450104E0,1.049196967E1
1.058018171E1,-2.005978546E0,7.550748138E0,4.628973999E0,9.081032302E0
1.059023871E1,-2.195185089E0,6.438860321E0,3.436853027E0,7.621661141E0
1.060029571E1,-1.944157104E0,4.951702881E0,2.076481934E0,5.710594145E0
1.061035271E1,-1.353784790E0,3.744912415E0,1.968706055E0,4.442173542E0
1.062040971E1,-5.682183838E-1,3.027154999E0,2.778971100E0,4.148399678E0
1.063046671E1,5.068460083E-1,2.683469696E0,3.459006958E0,4.407111483E0
1.064052271E1,1.571432190E0,2.696492615E0,3.300486603E0,4.542431437E0
1.065057971E1,2.387684784E0,2.941083984E0,2.130070496E0,4.346057288E0
1.066063671E1,2.578537903E0,3.030897217E0,9.918374634E-1,4.101089759E0
1.067069371E1,2.489024048E0,2.784060516E0,1.511856079E-2,3.734496250E0
1.068075071E1,2.413131866E0,2.156565399E0,-6.508465576E-1,3.301148432E0
1.069080771E1,2.547402649E0,1.321452026E0,-1.215173035E0,3.116430846E0
1.070086471E1,2.866389313E0,7.358697510E-1,-1.903292084E0,3.518552648E0
1.071092171E1,2.771336975E0,3.595523071E-1,-2.440973969E0,3.710517539E0
1.072097871E1,2.419867859E0,1.719923401E-1,-2.722239075E0,3.646358101E0
1.073103571E1,1.640438690E0,5.126838684E-1,-2.960992584E0,3.423647314E0
1.074109271E1,6.788383484E-1,1.015338593E0,-3.371139679E0,3.585570623E0
1.075114971E1,1.526824951E-1,1.475481720E0,-4.187841339E0,4.442788914E0
1.076120671E1,4.071533203E-2,1.892364807E0,-5.024301910E0,5.369014061E0
1.077126371E1,-9.774673462E-2,2.535277863E0,-5.906716919E0,6.428568505E0
1.078132071E1,-2.186952209E-1,4.491559753E0,-7.640711060E0,8.865799576E0
1.079137771E1,-7.682025146E-1,8.669970703E0,-1.001731888E1,1.327046362E1
1.080143471E1,-1.210981750E0,1.667158127E1,-9.848769379E0,1.940119473E1
1.081149171E1,-1.651365967E0,2.738944336E1,-1.053673874E1,2.939271135E1
1.082154871E1,-3.171604614E0,3.563998627E1,-1.437640411E1,3.856097369E1
1.083160571E1,-4.170776825E0,3.544254684E1,-1.175056458E1,3.757186812E1
1.084166271E1,-3.330723724E0,2.404943893E1,-6.042484589E0,2.501960938E1
1.085171971E1,-2.814597015E0,1.326721069E1,-3.263363800E0,1.394956556E1
1.086177671E1,-2.261347504E0,6.799460449E0,-3.568878479E0,8.005201342E0
1.087183371E1,-2.071093140E0,3.151396637E0,-7.120542755E0,8.057472103E0
1.088188971E1,-1.774260406E0,3.939657440E0,-1.042941193E1,1.128900057E1
1.089194671E1,-9.663903809E-1,8.500972137E0,-1.164683029E1,1.445161214E1
1.090200371E1,-8.524772644E-1,1.447983902E1,-9.816436615E0,1.751441930E1
1.091206071E1,1.541793823E-2,2.277259415E1,-2.069895630E0,2.286647655E1
1.092211771E1,2.248623962E0,2.900323746E1,1.809871353E1,3.426087454E1
1.093217471E1,3.693120117E0,2.392669418E1,2.160113022E1,3.244587273E1
1.094223171E1,4.966372375E0,1.047147446E1,9.431137848E0,1.494198758E1
1.095228871E1,7.670050049E0,3.606899414E0,-4.238585815E0,9.476550050E0
1.096234571E1,1.272384064E1,-3.885919189E-1,-2.116344040E1,2.469692964E1
1.097240271E1,9.724527740E0,-3.247347107E0,-1.306064026E1,1.660397624E1
1.098245971E1,2.761457520E0,-3.229085083E0,-1.975442047E0,4.685617290E0
1.099251671E1,-2.252665558E0,5.203179932E-1,3.607797546E0,4.285024628E0
1.100257371E1,-2.335293732E0,2.791544952E0,2.825075226E0,4.607317014E0
1.101263071E1,-2.742297363E-1,3.975732422E0,3.675756226E0,5.421515846E0
1.102268771E1,5.821394348E-1,5.114264832E0,3.848646698E0,6.427026723E0
1.103274471E1,7.174580383E-1,6.659950562E0,3.152743835E0,7.403342570E0
1.104280171E1,9.491761780E-1,8.582253113E0,2.504142609E0,8.990368964E0
1.105285871E1,1.756148071E0,1.015697845E1,2.151026917E0,1.052972859E1
1.106291571E1,3.759282532E0,1.131497040E1,2.957400055E0,1.228442002E1
1.107297271E1,6.396648102E0,1.323472824E1,4.922962646E0,1.550195793E1
1.108302971E1,8.602311401E0,1.574934906E1,6.505920868E0,1.908844581E1
1.109308671E1,8.638835449E0,1.634091888E1,6.207291870E0,1.949834814E1
1.110314371E1,5.538183289E0,1.404184982E1,4.453389130E0,1.573777924E1
1.111320071E1,1.962119751E0,1.133083740E1,2.218237152E0,1.171146303E1
1.112325771E1,4.171824646E-1,9.617649994E0,-5.269042969E-1,9.641102673E0
1.113331471E1,-2.023791504E-1,7.911947021E0,-3.370840302E0,8.602466352E0
1.114337171E1,4.236190796E-1,6.959777069E0,-1.971101074E0,7.245908461E0
1.115342771E1,1.190923462E0,6.906338196E0,9.250762939E-2,7.008877487E0
1.116348471E1,8.161029053E-1,7.227869568E0,-4.058061218E-1,7.285108170E0
1.117354171E1,-1.297801208E-1,7.864346008E0,-2.920576630E0,8.390145938E0
1.118359871E1,-7.571255493E-1,8.832981720E0,-3.742367706E0,9.622895677E0
1.119365571E1,-6.568341064E-1,9.525741119E0,-2.661764832E0,9.912424877E0
1.120371271E1,1.919009399E-1,9.892179108E0,-1.582359467E0,1.001977519E1
1.121376971E1,9.102571106E-1,9.900262299E0,-6.982978821E-1,9.966513007E0
1.122382671E1,8.668473816E-1,9.368717651E0,3.878434753E-1,9.416725406E0
1.123388371E1,6.420149231E-1,8.166717224E0,1.262025604E0,8.288556087E0
1.124394071E1,8.930429077E-1,7.084018707E0,1.901944885E0,7.389062256E0
1.125399771E1,1.189276886E0,6.822512512E0,2.696193237E0,7.431723519E0
1.126405471E1,1.181642761E0,6.846462708E0,2.841241608E0,7.506196447E0
1.127411171E1,1.184037781E0,7.109016724E0,1.870959320E0,7.445841324E0
1.128416871E1,1.439107361E0,7.679181061E0,-8.307723999E-2,7.813306188E0
1.129422571E1,2.083966370E0,8.275241547E0,-2.796933746E0,8.980277104E0
1.130428271E1,2.545157318E0,8.978778534E0,-3.647614746E0,1.002004906E1
1.131433971E1,2.422711945E0,9.617051239E0,-1.451082458E0,1.002311568E1
1.132439671E1,1.892364807E0,1.037791901E1,1.304237823E0,1.062935952E1
1.133445371E1,3.387455750E-1,1.147319138E1,2.740201721E0,1.180074465E1
1.134451071E1,-7.870632935E-1,1.273761200E1,1.195114746E0,1.281774268E1
1.135456771E1,-7.955955505E-1,1.316826645E1,-1.524429932E0,1.328006401E1
1.136462471E1,-8.640032959E-1,1.292726761E1,-1.850901031E0,1.308765006E1
1.137468212E1,-1.486408997E0,1.269285507E1,-4.700225830E-1,1.278823298E1
1.138473912E1,-2.308798828E0,1.277757889E1,1.920506287E-1,1.298591382E1
1.139479613E1,-2.702330475E0,1.308459045E1,-2.956352234E-1,1.336400006E1
1.140485312E1,-2.466271362E0,1.334070786E1,-1.204994202E-1,1.356729526E1
1.141491012E1,-2.298470306E0,1.380818573E1,1.187330933E0,1.404844168E1
1.142496712E1,-1.933379517E0,1.444436279E1,1.915117493E0,1.469847774E1
1.143502412E1,-1.475481720E0,1.506781631E1,1.480571136E0,1.521210786E1
1.144508013E1,-1.137634277E0,1.494971191E1,8.840615845E-1,1.501897676E1
1.145513712E1,-4.049079895E-1,1.477397736E1,1.138682098E0,1.482332467E1
1.146519412E1,6.086343384E-1,1.526136383E1,1.824855194E0,1.538212463E1
1.147525112E1,6.783892822E-1,1.458492050E1,1.778751068E0,1.470863941E1
1.148530812E1,6.650669861E-1,1.466470459E1,8.307723999E-2,1.468001283E1
1.149536513E1,2.970123596E0,1.579335754E1,-1.774709473E0,1.616791175E1
1.150542212E1,5.948779449E0,1.642639114E1,-8.460406494E-1,1.749085726E1
1.151547912E1,7.104975128E0,1.567195999E1,1.342408447E0,1.725957885E1
1.152553612E1,6.777605896E0,1.487636444E1,2.918480988E0,1.660601373E1
1.153559312E1,6.124963074E0,1.501183273E1,3.173700256E0,1.652097660E1
1.154565013E1,4.942871246E0,1.490720032E1,2.394420776E0,1.588678219E1
1.155570712E1,4.331392822E0,1.435948929E1,1.194515991E0,1.504602156E1
1.156576412E1,5.317691803E0,1.379576157E1,3.667373657E-2,1.478520302E1
1.157582112E1,8.152047729E0,1.315090256E1,-5.043013000E-1,1.548084106E1
1.158587812E1,9.674082642E0,1.255184830E1,-1.801503754E0,1.594936320E1
1.159593513E1,9.637408905E0,1.179457306E1,-3.654799805E0,1.566362556E1
1.160599212E1,6.888674927E0,1.086799988E1,-3.272794189E0,1.327698932E1
1.161604912E1,3.259022827E0,1.037597305E1,8.848100281E-1,1.091168802E1
1.162610612E1,1.319506073E0,1.025487488E1,3.611390076E0,1.095197212E1
1.163616312E1,4.107458496E-1,9.141190796E0,6.145320740E0,1.102247923E1
1.164622012E1,-9.406439209E-1,8.798553314E0,6.819369049E0,1.117153282E1
1.165627713E1,-2.370171204E0,8.237969055E0,5.939199371E0,1.042861136E1
1.166633412E1,-3.076402588E0,7.518265686E0,4.149071960E0,9.121588126E0
1.167639112E1,-3.620970154E0,6.459517365E0,1.530118103E0,7.561616947E0
1.168644812E1,-3.582649841E0,5.221891022E0,4.810995483E-1,6.350982798E0
1.169650512E1,-2.984194336E0,4.106859741E0,1.561552734E0,5.311323725E0
1.170656213E1,-1.424737244E0,3.297642517E0,2.609673157E0,4.440125715E0
1.171661912E1,7.673043823E-1,3.225941620E0,2.051334229E0,3.899157277E0
1.172667612E1,2.067051544E0,2.896626434E0,1.329834595E0,3.798895476E0
1.173673212E1,2.814597015E0,2.155966644E0,7.551795959E-1,3.624975138E0
1.174679012E1,3.414699097E0,1.366957397E0,1.675016785E-1,3.681955901E0
1.175684613E1,3.737128601E0,8.252339172E-1,-6.147715759E-1,3.876220490E0
1.176690312E1,3.735332336E0,2.492317200E-1,-9.981243896E-1,3.874413041E0
1.177696012E1,3.550167389E0,-2.820135498E-1,-1.259331207E0,3.777450889E0
1.178701712E1,2.766247559E0,-7.467970276E-1,-1.194066925E0,3.104130664E0
1.179707412E1,1.803150330E0,-6.441105652E-1,-1.108145599E0,2.212287549E0
1.180713113E1,1.739532623E0,-1.080752563E-1,-2.126028900E0,2.749118567E0
1.181718812E1,1.271006927E0,5.150788879E-1,-3.029400330E0,3.325361819E0
1.182724512E1,1.005010071E0,8.481362915E-1,-4.177961884E0,4.380039487E0
1.183730212E1,6.277944946E-1,1.269959106E0,-6.558611298E0,6.709866184E0
1.184735912E1,-5.526507568E-1,3.092718658E0,-9.724078674E0,1.021900375E1
1.185741613E1,-1.752705231E0,6.811136169E0,-1.547002991E1,1.699368638E1
1.186747312E1,-1.655407562E0,1.468176910E1,-1.517424500E1,2.117905639E1
1.187753012E1,-3.706292725E-1,2.620106461E1,-1.044003983E1,2.820687122E1
1.188758712E1,-4.739144897E-1,3.496010010E1,-1.221534805E1,3.703576544E1
1.189764412E1,-7.259902954E-1,3.546529953E1,-1.281170792E1,3.771543971E1
1.190770113E1,5.254074097E-1,2.591426102E1,-7.788453827E0,2.706445991E1
1.191775812E1,5.388793945E-2,1.461889984E1,-4.435426483E0,1.527704633E1
1.192781512E1,-3.490740967E-1,8.053402863E0,-3.654650116E0,8.850741091E0
1.193787212E1,1.123713226E0,3.422183533E0,-4.069287872E0,5.434443425E0
1.194792912E1,3.249442749E0,1.140478363E0,-6.948400726E0,7.754988184E0
1.195798612E1,4.102967834E0,2.717748413E0,-1.065229843E1,1.173422189E1
1.196804313E1,2.738106079E0,9.600884857E0,-1.217553085E1,1.574540462E1
1.197810012E1,1.335971832E0,1.766611313E1,-9.569300537E0,2.013573655E1
1.198815712E1,-5.858816528E-1,2.455568619E1,7.170688477E0,2.558796113E1
1.199821412E1,-2.670297089E0,2.427052917E1,1.844060257E1,3.059811916E1
1.200827112E1,2.081271973E0,1.513667313E1,1.116812576E1,1.892558056E1
1.201832813E1,5.289700012E0,6.957382050E0,7.640860748E0,1.160899841E1
1.202838512E1,6.502927094E0,4.591551819E0,-3.003504181E0,8.508316300E0
1.203844212E1,8.781788177E0,2.043251038E0,-1.398945877E1,1.664330601E1
1.204849912E1,4.579127655E0,1.154549103E0,-4.564009094E0,6.567463188E0
1.205855612E1,5.950126648E-1,2.848875732E0,3.110681305E0,4.259867509E0
1.206861313E1,-7.104226685E-1,3.705843658E0,3.502865753E0,5.148596515E0
1.207867012E1,-3.882925415E-1,4.568200378E0,3.666625214E0,5.870550762E0
1.208872612E1,-1.917512512E-1,5.987997894E0,3.532803497E0,6.955112355E0
1.209878312E1,-3.427871704E-2,7.568112030E0,2.846929779E0,8.085944836E0
1.210884012E1,3.486250305E-1,8.604706421E0,2.181114349E0,8.883680082E0
1.211889713E1,1.283431091E0,9.286538544E0,1.937870178E0,9.573000278E0
1.212895412E1,2.690505066E0,1.013482452E1,2.401456146E0,1.075734527E1
1.213901112E1,6.385271759E0,1.275737091E1,5.430257721E0,1.526466203E1
1.214906812E1,9.214388580E0,1.444990128E1,7.334597626E0,1.864137672E1
1.215912512E1,7.067253571E0,1.338381821E1,6.039640503E0,1.629570251E1
1.216918213E1,3.118165741E0,1.118309464E1,3.654949493E0,1.217140990E1
1.217923912E1,1.121617584E0,9.790989532E0,2.470462646E0,1.015995510E1
1.218929612E1,2.395019531E-2,8.526718597E0,1.189725952E0,8.609352559E0
1.219935312E1,-1.974094849E0,7.374863892E0,-5.468128967E0,9.390745566E0
1.220941012E1,-2.521506500E0,6.613547058E0,-6.932982788E0,9.907736879E0
1.221946713E1,-1.985471191E0,6.978937225E0,-2.992127838E0,7.848597941E0
1.222952412E1,-1.478625183E0,8.247249756E0,-1.954485626E0,8.603689617E0
1.223958112E1,9.418414307E-1,8.820258179E0,-1.982178040E0,9.089172097E0
1.224963812E1,1.317410431E0,8.869056702E0,-5.146298218E-1,8.981123586E0
1.225969512E1,1.125958557E0,9.127120056E0,-8.201445007E-1,9.232807817E0
1.226975213E1,1.306333466E0,9.361831970E0,-1.530567169E0,9.575648324E0
1.227980913E1,1.147513733E0,9.114995270E0,-1.060694275E0,9.247972690E0
1.228986612E1,1.042581940E0,8.578510895E0,-1.797761536E-1,8.643503094E0
1.229992312E1,9.098080444E-1,8.152047729E0,1.363963623E0,8.315288908E0
1.230998012E1,5.855822754E-1,7.506739655E0,2.591261444E0,7.962956908E0
1.232003712E1,5.980064392E-1,7.090754700E0,2.786904602E0,7.642201985E0
1.233009413E1,9.883946228E-1,7.264243927E0,2.026036835E0,7.605983764E0
1.234015112E1,1.653012543E0,7.731572113E0,4.462220764E-1,7.918887040E0
1.235020812E1,1.982028351E0,8.984167328E0,-1.531914368E0,9.326867673E0
1.236026512E1,1.711540833E0,1.015039215E1,-1.347647552E0,1.038152141E1
1.237032212E1,1.510658569E0,1.056682617E1,2.288740540E-1,1.067671710E1
1.238037900E1,1.611399078E0,1.052895493E1,8.827143860E-1,1.068806266E1
1.239043600E1,1.211730194E0,1.051458481E1,1.490899658E-1,1.058522610E1
1.240049300E1,-6.661148071E-2,1.090901459E1,-1.620230713E0,1.102887954E1
1.241055000E1,-4.650828552E-1,1.184486847E1,-1.558858337E0,1.195605497E1
1.242060700E1,-7.170089722E-2,1.223106537E1,-5.086422729E-1,1.224184700E1
1.243066400E1,-2.754272461E-1,1.212448700E1,-1.191522217E-1,1.212820030E1
1.244072100E1,-1.084195404E0,1.217118988E1,4.767585754E-1,1.222868110E1
1.245077800E1,-2.050436096E0,1.273641449E1,1.228195953E0,1.295874251E1
1.246083400E1,-2.856210480E0,1.339220078E1,1.295406189E0,1.375452860E1
1.247089100E1,-3.121458893E0,1.386686371E1,1.026864624E0,1.425089000E1
1.248094800E1,-2.817590790E0,1.399574570E1,9.168434143E-1,1.430595391E1
1.249100500E1,-1.573827209E0,1.441547287E1,1.177002411E0,1.454881867E1
1.250106200E1,-4.758604431E-1,1.473490860E1,1.074465637E0,1.478169310E1
1.251111900E1,9.295669556E-2,1.491184067E1,3.040177917E-1,1.491522913E1
1.252117600E1,6.915618896E-2,1.498129623E1,1.459465027E-1,1.498216673E1
1.253123300E1,4.828958130E-1,1.473745331E1,8.870553589E-1,1.477202036E1
1.254129000E1,1.182840271E0,1.410456940E1,1.084943848E0,1.419560115E1
1.255134700E1,1.251248016E0,1.416953430E1,1.627116394E-1,1.422560364E1
1.256140400E1,1.341210938E0,1.443238770E1,-1.393452301E0,1.456140002E1
1.257146100E1,2.298170929E0,1.446097824E1,-2.417622528E0,1.484070012E1
1.258151800E1,4.499642944E0,1.415636169E1,-6.882687378E-1,1.487020770E1
1.259157500E1,6.320755920E0,1.538380920E1,2.238594818E0,1.678168191E1
1.260163200E1,6.356531525E0,1.583721634E1,3.941753082E0,1.751457484E1
1.261168900E1,5.490282898E0,1.616922592E1,4.257147217E0,1.759859016E1
1.262174600E1,5.131479034E0,1.665960617E1,3.653901672E0,1.781082683E1
1.263180300E1,6.036946106E0,1.645932266E1,2.709515533E0,1.773965882E1
1.264186000E1,7.974217529E0,1.530492325E1,1.359472961E0,1.731118100E1
1.265191700E1,9.720635834E0,1.381986145E1,-3.340752869E0,1.722323899E1
1.266197400E1,9.325158234E0,1.213930618E1,-5.814358978E0,1.637461758E1
1.267203100E1,6.935677185E0,1.113908615E1,-3.511547699E0,1.358358662E1
1.268208800E1,4.092190247E0,1.042626846E1,-5.616320801E-1,1.121465673E1
1.269214500E1,1.600322113E0,8.948541412E0,2.358345795E0,9.391443934E0
1.270220200E1,9.639953613E-2,8.121660919E0,4.380939789E0,9.228396523E0
1.271225900E1,-2.656974792E-1,8.556806030E0,5.102888489E0,9.966393305E0
1.272231600E1,-1.050665131E0,8.340805206E0,4.581971741E0,9.574309048E0
1.273237300E1,-2.037562866E0,7.740403748E0,3.491040344E0,8.732289236E0
1.274243000E1,-2.657723236E0,6.662495270E0,2.613565063E0,7.634334179E0
1.275248700E1,-2.674338684E0,5.407654724E0,2.351609802E0,6.474942909E0
1.276254400E1,-2.283202057E0,4.322561188E0,2.318827972E0,5.410592391E0
1.277260100E1,-1.298399963E0,3.634741516E0,1.800904999E0,4.259160383E0
1.278265800E1,5.210664368E-1,3.623664551E0,1.131347351E0,3.831762236E0
1.279271500E1,1.776356049E0,3.641776886E0,1.194216614E0,4.224231648E0
1.280277200E1,2.524051208E0,3.365002441E0,1.006207581E0,4.325104580E0
1.281282900E1,3.242108002E0,2.868185577E0,4.799020386E-1,4.355233492E0
1.282288600E1,3.452121277E0,2.212998047E0,6.152206421E-2,4.101010440E0
1.283294300E1,3.549718323E0,1.365909576E0,-3.911366272E-1,3.823505852E0
1.284300000E1,3.423081665E0,7.897576904E-1,-7.479945374E-1,3.591754602E0
1.285305700E1,3.170556793E0,2.486329651E-1,-8.882528687E-1,3.302005737E0
1.286311400E1,2.710413666E0,-9.939331055E-2,-6.065386963E-1,2.779228393E0
1.287317100E1,2.163750458E0,2.276765442E-1,-6.453080750E-1,2.269377704E0
1.288322800E1,1.599423981E0,7.470964050E-1,-1.039737854E0,2.048747157E0
1.289328400E1,7.768844604E-1,8.869056702E-1,-1.791624298E0,2.144777088E0
1.290334100E1,4.260140991E-1,1.011296997E0,-3.105891266E0,3.294050726E0
1.291339800E1,3.466790771E-1,1.660347290E0,-4.988226929E0,5.268714018E0
1.292345500E1,3.622467041E-2,3.756139069E0,-7.774832153E0,8.634692116E0
1.293351200E1,-4.099974060E-1,8.199199677E0,-1.140583145E1,1.405304111E1
1.294356900E1,-1.564097443E0,1.588811050E1,-1.293849426E1,2.054952773E1
1.295362600E1,-3.093018036E0,2.560964447E1,-1.156644745E1,2.827018495E1
1.296368300E1,-4.826862488E0,3.420671677E1,-1.467293747E1,3.753256143E1
1.297374000E1,-6.584657135E0,3.576243164E1,-1.750355118E1,4.035695145E1
1.298379700E1,-6.638844452E0,2.431408859E1,-1.148307083E1,2.769675207E1
1.299385400E1,-5.278922424E0,1.322439972E1,-5.570216675E0,1.528983596E1
1.300391100E1,-3.767814789E0,6.260131989E0,-4.518952789E0,8.591077645E0
1.301396800E1,-5.373825073E-2,1.635498962E0,-5.582491150E0,5.817383612E0
1.302402500E1,5.247338104E0,1.104702759E-1,-7.038363647E0,8.779824810E0
1.303408200E1,7.222780151E0,2.557880859E0,-8.193361816E0,1.121795371E1
1.304413900E1,6.259682922E0,6.631659393E0,-8.822653198E0,1.268864634E1
1.305419600E1,5.419330444E0,8.990005188E0,-5.252277832E0,1.173779188E1
1.306425300E1,3.293750610E0,1.137035522E1,5.146447906E0,1.290812523E1
1.307431000E1,4.192781067E-1,1.454240891E1,8.890162811E0,1.704970515E1
1.308436700E1,4.305047607E-1,1.724563751E1,3.248694305E0,1.755424058E1
1.309442400E1,1.992955627E0,1.584245544E1,2.119592285E0,1.610738769E1
1.310448100E1,3.176095276E0,1.328652054E1,3.573069763E-1,1.366553612E1
1.311453800E1,4.710254974E0,1.202853653E1,-4.132755890E0,1.356288554E1
1.312459500E1,5.065915375E0,1.099164276E1,-2.908751221E0,1.244751151E1
1.313465200E1,3.151696014E0,9.076974335E0,1.966161346E0,9.807672572E0
1.314470900E1,1.654359741E0,6.959028625E0,2.845432892E0,7.698147433E0
1.315476600E1,1.007255402E0,5.688620453E0,2.155816956E0,6.166239766E0
1.316482300E1,8.324189758E-1,5.450016632E0,2.413281555E0,6.018266404E0
1.317488000E1,8.186476135E-1,5.885311432E0,2.515668640E0,6.452570284E0
1.318493700E1,7.952961731E-1,6.534361725E0,2.423909454E0,7.014678624E0
1.319499400E1,9.744735718E-1,7.257657623E0,2.372266846E0,7.697456912E0
1.320505100E1,1.321152649E0,8.273744659E0,2.505938873E0,8.745285853E0
1.321510800E1,2.610122223E0,9.965526581E0,4.219275970E0,1.113223912E1
1.322516500E1,4.555476837E0,1.155297546E1,6.583459625E0,1.405580136E1
1.323522200E1,5.516328735E0,1.243763580E1,6.346053314E0,1.501322949E1
1.324527900E1,5.043611755E0,1.239287888E1,4.838538208E0,1.422789227E1
1.325533600E1,2.978955231E0,1.129146927E1,3.022215271E0,1.206255519E1
1.326539300E1,1.555714874E0,1.024289978E1,1.681004333E0,1.049585729E1
1.327545000E1,8.319699097E-1,9.112899628E0,6.759942627E-1,9.175733311E0
1.328550700E1,-4.532574463E-1,7.709418182E0,-5.560037842E0,9.516017645E0
1.329556400E1,2.694396973E-2,6.725963287E0,-6.352639618E0,9.251774869E0
1.330562100E1,8.220904541E-1,6.878795471E0,-1.922152863E0,7.189459749E0
1.331567800E1,6.262976074E-1,7.363487549E0,-2.950364685E-1,7.395961337E0
1.332573500E1,1.055305481E-1,7.616162109E0,-7.309300232E-1,7.651883472E0
1.333579200E1,-3.526666260E-1,8.039631500E0,-1.017134857E0,8.111387781E0
1.334584900E1,6.197113037E-2,8.630452881E0,-1.040037231E0,8.693114217E0
1.335590600E1,3.653901672E-1,8.976832581E0,-5.918692017E-1,9.003740462E0
1.336596200E1,4.129911804E-1,8.826096039E0,-2.368075562E-1,8.838925886E0
1.337601821E1,2.736309814E-1,8.425978088E0,5.707630920E-1,8.449718999E0
1.338607521E1,1.983375549E-1,7.844886475E0,1.539997559E0,7.997072844E0
1.339613221E1,1.246907043E-1,7.194938049E0,1.929487610E0,7.450208302E0
1.340618921E1,-2.125579834E-2,7.009324036E0,2.174228668E0,7.338824534E0
1.341624621E1,-2.948867798E-1,7.191195831E0,1.619631958E0,7.377225995E0
1.342630321E1,-4.110452271E-1,7.926017761E0,4.809498596E-1,7.951228113E0
1.343636021E1,-1.341210938E-1,9.017398224E0,-1.048419800E0,9.079132297E0
1.344641721E1,8.550219727E-1,1.004381378E1,-1.986968079E0,1.027410823E1
1.345647421E1,1.469943237E0,1.078552139E1,-8.845106506E-1,1.092110635E1
1.346653121E1,3.468287659E-1,1.165042282E1,1.446442108E0,1.174499199E1
1.347658821E1,-7.304809570E-1,1.249691254E1,1.845212860E0,1.265350686E1
1.348664521E1,-9.157955933E-1,1.308668610E1,-2.745291138E-1,1.312156244E1
1.349670221E1,-1.101110229E0,1.295346313E1,-2.474953308E0,1.323367087E1
1.350675921E1,-1.251547394E0,1.246652573E1,-8.741821289E-1,1.255965083E1
1.351681621E1,-8.581654358E-1,1.242640915E1,3.213667145E0,1.286389322E1
1.352687321E1,-7.060816956E-1,1.301318893E1,2.094444580E0,1.319955816E1
1.353693021E1,-1.753154297E0,1.356299561E1,-2.540816345E0,1.390985792E1
1.354698721E1,-2.651136932E0,1.359981903E1,-2.158661041E0,1.402296054E1
1.355704421E1,-2.746039581E0,1.310988785E1,1.652264099E0,1.349592047E1
1.356710121E1,-2.737507324E0,1.349563568E1,3.245999908E0,1.414788480E1
1.357715821E1,-4.694238281E-1,1.498773285E1,1.206790466E0,1.504356467E1
1.358721521E1,5.834866333E-1,1.509311371E1,-1.395847321E0,1.516874839E1
1.359727221E1,4.676275635E-1,1.456471252E1,-8.187973022E-1,1.459520317E1
1.360732921E1,6.518943787E-1,1.416519333E1,1.358724518E0,1.424513252E1
1.361738621E1,8.675958252E-1,1.399424881E1,2.289339294E0,1.420678699E1
1.362744321E1,2.401007080E-1,1.370789429E1,9.851014709E-1,1.374534245E1
1.363750021E1,-1.856140137E-2,1.387644379E1,-1.595232697E0,1.396784894E1
1.364755721E1,2.126627655E0,1.497171616E1,-2.641407166E0,1.535095638E1
1.365761421E1,5.079686737E0,1.525986694E1,5.104385376E-2,1.608320123E1
1.366767121E1,6.136788483E0,1.544024185E1,2.435884552E0,1.679270005E1
1.367772821E1,5.633535004E0,1.521226593E1,3.216511230E0,1.653770528E1
1.368778521E1,4.615651703E0,1.530417480E1,3.183729401E0,1.629902267E1
1.369784221E1,3.735032959E0,1.592777802E1,2.587219849E0,1.656316064E1
1.370789921E1,3.720064087E0,1.584859268E1,2.018851776E0,1.640404003E1
1.371795621E1,5.408702545E0,1.521690628E1,1.505718842E0,1.621960201E1
1.372801321E1,8.004454651E0,1.455737778E1,2.353106689E-1,1.661456930E1
1.373807021E1,9.402696991E0,1.363649277E1,-2.195484467E0,1.670882395E1
1.374812721E1,9.207802277E0,1.254346573E1,-4.040847015E0,1.607639885E1
1.375818421E1,6.129753113E0,1.174577454E1,-2.470013580E0,1.347731649E1
1.376824121E1,2.785407715E0,1.100257004E1,-3.293151855E-3,1.134967200E1
1.377829821E1,1.192120972E0,9.983040161E0,2.716999969E0,1.041462107E1
1.378835521E1,1.031355286E-1,9.560618591E0,4.109404449E0,1.040688569E1
1.379841221E1,-1.432371368E0,9.197024689E0,4.470753021E0,1.032591804E1
1.380846921E1,-2.729274445E0,7.796387329E0,4.475093994E0,9.394629351E0
1.381852621E1,-3.431913300E0,5.766458588E0,3.520379333E0,7.577806028E0
1.382858321E1,-3.535797272E0,4.375550995E0,3.554358673E0,6.654380094E0
1.383864021E1,-3.266806641E0,3.677552490E0,3.487597504E0,6.029904999E0
1.384869721E1,-1.881287842E0,3.403173065E0,3.131637726E0,4.992793377E0
1.385875421E1,1.369651794E-1,3.798650665E0,2.547252960E0,4.575697103E0
1.386881121E1,1.235381012E0,3.767365723E0,2.380948792E0,4.624730033E0
1.387886821E1,1.930086365E0,2.980901184E0,2.318827972E0,4.241222514E0
1.388892521E1,2.688409424E0,1.991309052E0,1.418001251E0,3.633673694E0
1.389898221E1,2.686613159E0,1.039887543E0,5.322930908E-1,2.929606169E0
1.390903921E1,2.785108337E0,2.398013306E-1,-5.337899780E-1,2.845920742E0
1.391909621E1,3.288062439E0,-2.689906311E-1,-1.253643036E0,3.529211162E0
1.392915321E1,3.249891815E0,-7.436535645E-1,-1.686243439E0,3.736072051E0
1.393921021E1,3.105741577E0,-1.129401398E0,-1.894610138E0,3.809294664E0
1.394926721E1,2.616259460E0,-1.028960266E0,-2.402054901E0,3.697761558E0
1.395932421E1,1.698817291E0,-6.334826660E-1,-2.970422974E0,3.480042115E0
1.396938021E1,1.147214355E0,-1.811233521E-2,-3.635789337E0,3.812531041E0
1.397943721E1,9.392967224E-1,5.123844910E-1,-4.753215637E0,4.872153024E0
1.398949421E1,6.087840271E-1,1.812281342E0,-5.965095520E0,6.263972080E0
1.399955121E1,4.176315308E-1,4.208498383E0,-8.088430023E0,9.127353120E0
1.400960821E1,1.303788757E-1,8.460705872E0,-1.068882248E1,1.363273518E1
1.401966521E1,-9.081614685E-1,1.683998108E1,-1.214424591E1,2.078202177E1
1.402972221E1,-2.200873260E0,2.906880112E1,-1.500868927E1,3.278871445E1
1.403977921E1,-3.225342865E0,3.987872177E1,-1.886511978E1,4.423356227E1
1.404983621E1,-5.482798462E0,3.926395020E1,-1.353186035E1,4.189069238E1
1.405989321E1,-5.600004730E0,2.523976364E1,-5.003046112E0,2.633317664E1
1.406995021E1,-5.429808655E0,1.265902542E1,-2.559677124E0,1.401019963E1
1.408000721E1,-4.798571320E0,3.801794128E0,-4.196523285E0,7.422313183E0
1.409006421E1,-2.188000031E0,-1.497336273E0,-8.285420380E0,8.699284506E0
1.410012121E1,8.587641907E-1,-1.758094025E0,-1.221909027E1,1.237475404E1
1.411017821E1,1.723216553E0,3.042273560E0,-1.357676697E1,1.401975410E1
1.412023521E1,2.595602417E-1,8.077802124E0,-1.043809387E1,1.320121443E1
1.413029221E1,-2.145039368E-1,1.207928101E1,3.990252228E0,1.272309532E1
1.414034921E1,5.237308960E0,1.521555908E1,1.321362213E1,2.082168228E1
1.415040621E1,1.165745819E1,1.795561111E1,7.565118256E0,2.270531471E1
1.416046321E1,1.234737350E1,1.679866699E1,3.140319672E0,2.108351140E1
1.417052021E1,1.156105865E1,1.270722519E1,-2.907853088E0,1.742375559E1
1.418057721E1,9.363777924E0,9.728419647E0,-8.074359283E0,1.573269728E1
1.419063421E1,2.036515045E0,7.342381439E0,-2.338137817E0,7.970247624E0
1.420069121E1,-1.252295837E0,5.081033936E0,2.346370697E0,5.735033231E0
1.421074821E1,-2.478845215E-1,5.678142242E0,3.550616455E0,6.701464263E0
1.422080521E1,6.506968689E-1,7.548353119E0,3.952680359E0,8.545450441E0
1.423086221E1,4.502636719E-1,8.695118408E0,4.205953674E0,9.669429550E0
1.424091921E1,3.206332397E-1,8.620274048E0,3.883673859E0,9.460171932E0
1.425097621E1,4.170327759E-1,8.615484009E0,2.809956665E0,9.071732883E0
1.426103321E1,1.151255951E0,8.797355804E0,2.385140076E0,9.187369188E0
1.427109021E1,2.114802246E0,8.995843048E0,2.485730896E0,9.569557919E0
1.428114721E1,2.845582581E0,9.593400421E0,2.313439178E0,1.027047578E1
1.429120421E1,3.825295258E0,1.036908737E1,2.240540771E0,1.127700668E1
1.430126121E1,5.954467621E0,1.233375183E1,3.974534912E0,1.426092727E1
1.431131821E1,8.162376251E0,1.356928253E1,5.362149353E0,1.671832707E1
1.432137521E1,7.157964935E0,1.307066940E1,4.963528290E0,1.570717905E1
1.433143221E1,4.199966125E0,1.150043472E1,3.892954559E0,1.284736586E1
1.434148921E1,1.923200684E0,1.017868332E1,2.853965149E0,1.074473881E1
1.435154621E1,9.559121704E-1,9.301507416E0,1.877246246E0,9.537078261E0
1.436160321E1,4.927752686E-1,8.574918365E0,1.417103119E0,8.705184300E0
1.437166021E1,4.819976807E-2,8.060737610E0,1.548978882E0,8.208358521E0
1.438171833E1,-3.811074829E-1,7.714208221E0,8.740324402E-1,7.772913489E0
1.439177533E1,-5.957611084E-1,7.414232025E0,-4.810995483E-1,7.453671887E0
1.440183233E1,-4.623884583E-1,7.567962341E0,-2.959346008E-1,7.587847809E0
1.441188933E1,-3.177891541E-1,8.027656403E0,6.735992432E-1,8.062133291E0
1.442194633E1,-3.555107117E-1,8.309969330E0,8.277786255E-1,8.358659915E0
1.443200333E1,-2.929408264E-1,8.498726807E0,3.140469360E-1,8.509570914E0
1.444206033E1,-4.929249573E-1,8.584348755E0,2.930905151E-1,8.603483051E0
1.445211733E1,-9.357041931E-1,8.647816772E0,8.560697937E-1,8.740316514E0
1.446217433E1,-1.207239532E0,8.651409302E0,1.432221680E0,8.851868116E0
1.447223133E1,-1.355730743E0,8.532107391E0,1.702409821E0,8.805286002E0
1.448228833E1,-1.405726776E0,8.605005798E0,1.518292694E0,8.850277129E0
1.449234533E1,-1.461860046E0,8.620423737E0,7.762857056E-1,8.777890389E0
1.450240233E1,-1.102457428E0,8.716673584E0,-2.570155334E-1,8.789873022E0
1.451245933E1,-1.125659180E-1,8.410560150E0,-1.302142181E0,8.511507938E0
1.452251633E1,6.412664795E-1,8.078849945E0,-1.459914093E0,8.234706327E0
1.453257333E1,6.712042236E-1,8.340655518E0,-7.746391296E-1,8.403399036E0
1.454263033E1,4.776567078E-1,8.805438995E0,4.041595459E-3,8.818385803E0
1.455268733E1,4.080514526E-1,9.531728668E0,1.337319031E0,9.633731343E0
1.456274433E1,6.445596313E-1,1.090781708E1,1.973945160E0,1.110371064E1
1.457280133E1,9.098080444E-1,1.237985596E1,5.120851135E-1,1.242380036E1
1.458285833E1,8.764274597E-1,1.291858566E1,-9.565109253E-1,1.298356245E1
1.459291533E1,3.650907898E-1,1.258852203E1,6.376739502E-2,1.259397652E1
1.460297233E1,-4.914280701E-1,1.211026657E1,1.551822968E0,1.221917397E1
1.461302933E1,-1.164877625E0,1.210502747E1,1.653760986E0,1.227287885E1
1.462308633E1,-1.595232697E0,1.226953537E1,7.997868347E-1,1.239862591E1
1.463314333E1,-1.751956787E0,1.226085342E1,4.107458496E-1,1.239219881E1
1.464320033E1,-2.041604462E0,1.238808884E1,2.490820312E-1,1.255766442E1
1.465325733E1,-2.205812988E0,1.243763580E1,5.337899780E-1,1.264299518E1
1.466331433E1,-1.866169281E0,1.225441681E1,1.731299744E0,1.251601845E1
1.467337133E1,-4.354444885E-1,1.236264175E1,1.522483978E0,1.246364636E1
1.468342833E1,1.199006653E0,1.260169464E1,-9.086105347E-2,1.265893283E1
1.469348533E1,2.070344696E0,1.342543167E1,-1.148411865E0,1.363258569E1
1.470354233E1,1.990261230E0,1.343456268E1,-1.152603149E-1,1.358167512E1
1.471359933E1,1.709894257E0,1.297187485E1,1.802252197E0,1.320762615E1
1.472365533E1,1.315913544E0,1.273821075E1,1.826202393E0,1.293555785E1
1.473371233E1,1.230141907E0,1.322005875E1,-6.411167908E-1,1.329263830E1
1.474376933E1,2.541415100E0,1.517993317E1,-2.169288940E0,1.554332578E1
1.475382633E1,4.976251831E0,1.749142639E1,-5.840853882E-1,1.819489586E1
1.476388333E1,5.791456604E0,1.809272598E1,2.368225250E0,1.914409031E1
1.477394033E1,4.847968597E0,1.721719666E1,3.879482574E0,1.830259668E1
1.478399733E1,3.911216583E0,1.687815170E1,3.724405060E0,1.772119672E1
1.479405433E1,3.648063812E0,1.684252579E1,2.951113129E0,1.748393872E1
1.480411133E1,3.418291626E0,1.644854507E1,1.991458740E0,1.691760209E1
1.481416833E1,2.928510132E0,1.624137589E1,1.354982300E0,1.655881757E1
1.482422533E1,2.185155945E0,1.661425049E1,9.635462952E-1,1.678501258E1
1.483428233E1,2.330354004E0,1.663445847E1,2.359094238E-1,1.679855385E1
1.484433933E1,4.853507080E0,1.600561615E1,-2.222578125E0,1.687234817E1
1.485439633E1,9.052126007E0,1.466275864E1,-4.153562622E0,1.772539304E1
1.486445333E1,1.004680756E1,1.360416000E1,-3.870351563E0,1.734909602E1
1.487451033E1,7.272027740E0,1.193108917E1,-1.435514832E0,1.404613752E1
1.488456733E1,3.833977203E0,1.018122803E1,6.909631348E-1,1.090111074E1
1.489462433E1,1.282982025E0,8.123457184E0,3.880979462E0,9.093877120E0
1.490468133E1,-6.304888916E-1,6.619085541E0,8.487500153E0,1.078181193E1
1.491473833E1,-1.434766388E0,5.894592133E0,1.019035904E1,1.185951889E1
1.492479533E1,-2.163900146E0,4.846022644E0,6.400390320E0,8.314529184E0
1.493485233E1,-2.132465515E0,4.567302246E0,3.939956818E0,6.397727620E0
1.494490933E1,-1.833986206E0,3.693868561E0,2.554587708E0,4.851194565E0
1.495496633E1,-1.611249390E0,2.847528534E0,2.386187897E0,4.049498244E0
1.496502333E1,-1.416204987E0,2.458487549E0,3.261268158E0,4.322692169E0
1.497508033E1,-6.649172974E-1,2.219734039E0,3.666026459E0,4.336944110E0
1.498513733E1,1.079854431E0,2.193388824E0,2.200274506E0,3.289110522E0
1.499519433E1,2.507884827E0,2.174228668E0,7.858657837E-1,3.410915073E0
1.500525133E1,3.451372833E0,1.783990173E0,3.367996216E-2,3.885322343E0
1.501530833E1,4.352648621E0,1.001118164E0,-3.477268982E-1,4.479810441E0
1.502536533E1,4.011957092E0,1.474433899E-1,-7.150630188E-1,4.077849235E0
1.503542233E1,3.740870819E0,-3.493734741E-1,-1.468745728E0,4.034029043E0
1.504547933E1,3.718118134E0,-6.887178040E-1,-2.117646332E0,4.333954390E0
1.505553633E1,3.107986908E0,-8.419990540E-1,-2.375859375E0,4.001656257E0
1.506559333E1,2.154170380E0,-6.363267517E-1,-2.904709625E0,3.671879596E0
1.507565033E1,1.759890289E0,1.065783691E-1,-4.097579041E0,4.460798894E0
1.508570733E1,1.535656586E0,5.525010681E-1,-5.602998505E0,5.835845339E0
1.509576433E1,1.067579956E0,1.182091827E0,-7.103478241E0,7.279867524E0
1.510582133E1,4.583468628E-1,3.002905426E0,-8.373287659E0,8.907270573E0
1.511587833E1,-1.040785675E0,6.134243774E0,-1.062131287E1,1.230952755E1
1.512593533E1,-2.434537354E0,1.172601562E1,-1.260319153E1,1.738582328E1
1.513599233E1,-2.586920471E0,2.002969803E1,-1.118084930E1,2.308446126E1
1.514604933E1,-2.749632111E0,2.726250732E1,-1.304911423E1,3.034936844E1
1.515610633E1,-3.166066132E0,3.220627670E1,-1.473026825E1,3.555627985E1
1.516616333E1,-3.464545441E0,3.013368668E1,-1.076082275E1,3.218442875E1
1.517622033E1,-2.051932983E0,2.070838669E1,-5.440885620E0,2.150932227E1
1.518627733E1,-1.479373627E0,1.185699326E1,-4.502636719E0,1.276912577E1
1.519633433E1,-1.627415771E0,5.745951233E0,-5.640270996E0,8.214444264E0
1.520639133E1,-5.632786560E-1,1.309027863E0,-7.558831329E0,7.691993750E0
1.521644833E1,1.356030121E0,8.023315430E-2,-1.045216461E1,1.054006642E1
1.522650533E1,2.158361664E0,1.909728699E0,-1.195264435E1,1.229517367E1
1.523656233E1,1.100960541E0,4.158502350E0,-1.158830200E1,1.236098698E1
1.524661933E1,-8.150550842E-1,7.777376862E0,-4.795278168E0,9.173145499E0
1.525667633E1,-1.104403381E0,1.351165237E1,9.607022095E0,1.661563511E1
1.526673333E1,8.881031799E-1,1.993973511E1,1.077115128E1,2.268037617E1
1.527679033E1,2.208657074E0,2.204136475E1,4.454287262E0,2.259514552E1
1.528684733E1,2.631527710E0,1.871573044E1,1.508862305E0,1.895996227E1
1.529690433E1,4.333787842E0,1.558379333E1,-4.279899902E0,1.673182222E1
1.530696133E1,8.288563843E0,1.192031158E1,-6.846163330E0,1.605191799E1
1.531701833E1,8.048163757E0,7.790549469E0,1.866618347E-1,1.120269805E1
1.532707533E1,3.269051971E0,5.594466248E0,5.069657593E0,8.227161205E0
1.533713233E1,7.996371460E-1,4.762196960E0,4.213737488E0,6.408862853E0
1.534718933E1,1.791773987E-1,4.755610657E0,2.699636078E0,5.471377542E0
1.535724633E1,-2.615061951E-1,5.658083954E0,2.530338135E0,6.203620765E0
1.536730333E1,-3.103047180E-1,6.716532898E0,2.698588257E0,7.245031523E0
1.537735988E1,4.176315308E-1,7.307204590E0,3.530258789E0,8.126031143E0
1.538741687E1,1.165027313E0,8.151748352E0,4.537065125E0,9.401768439E0
1.539747387E1,2.171085205E0,1.026984375E1,6.122418365E0,1.215184382E1
1.540753087E1,4.164789276E0,1.209065735E1,8.366252289E0,1.528148037E1
1.541758787E1,4.709656219E0,1.273461823E1,8.458909607E0,1.599701581E1
1.542764488E1,3.449277191E0,1.239437576E1,6.094875641E0,1.423606592E1
1.543770187E1,1.453028412E0,1.108160568E1,2.718047791E0,1.150221978E1
1.544775887E1,6.578819275E-1,9.887538757E0,1.554367676E0,1.003056779E1
1.545781587E1,5.719606018E-1,8.735534363E0,9.777667236E-1,8.808673413E0
1.546787287E1,7.050338745E-1,8.084089050E0,1.160087585E-1,8.115603894E0
1.547792988E1,1.092278595E0,7.581284637E0,-6.777007141E0,1.022725648E1
1.548798687E1,1.204096069E0,6.480324097E0,-1.000938538E1,1.198466701E1
1.549804387E1,8.548722839E-1,6.549180908E0,-3.875890045E0,7.658008934E0
1.550810087E1,2.987786865E-1,7.113357697E0,-1.217867432E0,7.223041430E0
1.551815787E1,-3.315605164E-1,7.917784882E0,-3.248245239E-2,7.924790528E0
1.552821487E1,-5.260061646E-1,8.943751373E0,3.308120728E-1,8.965311358E0
1.553827188E1,-6.601272583E-1,9.544601898E0,-7.345225525E-1,9.595557137E0
1.554832887E1,-4.685256958E-2,9.695488129E0,-2.529440002E0,1.002011736E1
1.555838587E1,9.090596008E-1,9.450447693E0,-3.365750885E0,1.007301494E1
1.556844287E1,1.449735260E0,8.887618103E0,-2.425556030E0,9.326028626E0
1.557849987E1,1.510209503E0,8.431067505E0,-1.655557251E-1,8.566857108E0
1.558855688E1,1.123563538E0,8.236023102E0,1.436862030E0,8.435582022E0
1.559861387E1,6.474037170E-1,8.127049713E0,2.299218750E0,8.470801348E0
1.560867087E1,5.053491211E-1,8.201744385E0,2.049088898E0,8.468928740E0
1.561872787E1,7.888595581E-1,8.477920074E0,8.122109985E-1,8.553193257E0
1.562878487E1,1.079255676E0,8.532855835E0,-6.489006042E-1,8.625282228E0
1.563884188E1,1.254541168E0,8.443192291E0,-1.325194244E0,8.638142705E0
1.564889887E1,1.604962463E0,8.540040894E0,-1.235381012E0,8.776922537E0
1.565895587E1,1.958676910E0,8.888665924E0,-5.354365540E-1,9.117647145E0
1.566901287E1,1.621577911E0,9.767189026E0,1.800755310E-1,9.902521072E0
1.567906987E1,1.812730408E-1,1.142933258E1,7.101232910E-1,1.145280657E1
1.568912688E1,-9.184899902E-1,1.220412140E1,5.780978394E-1,1.225228142E1
1.569918387E1,-1.145567780E0,1.240230927E1,5.017565918E-1,1.246520599E1
1.570924087E1,-2.042652283E0,1.285841080E1,1.035696259E0,1.306077422E1
1.571929787E1,-3.193758545E0,1.390099274E1,6.348298645E-1,1.427727921E1
1.572935487E1,-3.819158020E0,1.510164597E1,-1.011596375E0,1.560990090E1
1.573941188E1,-3.896696777E0,1.513038620E1,-2.106569366E0,1.576548340E1
1.574946888E1,-3.107388153E0,1.362406860E1,-1.604663086E0,1.406577584E1
1.575952587E1,-2.533182220E0,1.284538788E1,-1.922003174E-1,1.309419501E1
1.576958287E1,-1.785037994E0,1.400846924E1,8.849597168E-1,1.414944256E1
1.577963987E1,-4.372407532E-1,1.504221954E1,-5.635780334E-1,1.505912243E1
1.578969687E1,5.996530151E-1,1.517439468E1,-2.573448486E0,1.540274245E1
1.579975388E1,7.185058594E-3,1.353425537E1,-9.563612366E-1,1.356800453E1
1.580981087E1,2.724334717E-2,1.182076859E1,2.229912872E0,1.202929024E1
1.581986787E1,-4.864883423E-2,1.178993271E1,3.136876831E0,1.220019984E1
1.582992487E1,-5.016069031E-1,1.244047989E1,1.789528656E0,1.257853577E1
1.583998187E1,-6.122268677E-1,1.361299164E1,-1.622925110E0,1.372305538E1
1.585003888E1,2.338736572E0,1.482202744E1,-2.371219025E0,1.519160511E1
1.586009587E1,4.866979065E0,1.567794754E1,1.658551025E-1,1.641685208E1
1.587015287E1,5.980513458E0,1.626966705E1,2.737956390E0,1.754893195E1
1.588020987E1,6.033353577E0,1.648686539E1,4.025279388E0,1.801168953E1
1.589026687E1,5.186714172E0,1.729428635E1,3.979774017E0,1.848872482E1
1.590032388E1,4.258494415E0,1.787507858E1,3.062032471E0,1.862872116E1
1.591038087E1,3.765868835E0,1.784184769E1,1.804796906E0,1.832404401E1
1.592043787E1,4.504732361E0,1.758198807E1,-1.292262726E0,1.819584736E1
1.593049487E1,7.676187286E0,1.581536179E1,-5.573210449E0,1.844207674E1
1.594055187E1,9.133107605E0,1.306123901E1,-6.157146149E0,1.708566849E1
1.595060888E1,6.879094849E0,1.189755890E1,-4.016298065E0,1.431797834E1
1.596066587E1,3.590283966E0,1.082129700E1,-1.854643250E0,1.155120380E1
1.597072287E1,1.512454834E0,9.822723541E0,1.538800049E-1,9.939672854E0
1.598077987E1,2.456391907E-1,9.521549835E0,2.226769409E0,9.781551609E0
1.599083687E1,-5.284011841E-1,8.794811096E0,4.511468353E0,9.898548213E0
1.600089387E1,-1.717079315E0,8.331225128E0,5.594166870E0,1.018098112E1
1.601095088E1,-3.028951263E0,7.370672607E0,5.170996857E0,9.499503615E0
1.602100787E1,-3.623215485E0,5.965544586E0,4.218677216E0,8.155528806E0
1.603106487E1,-3.542682953E0,4.886887665E0,3.340752869E0,6.898760996E0
1.604112187E1,-3.073857880E0,4.541705475E0,3.351979523E0,6.427398977E0
1.605117887E1,-1.949695587E0,4.155508575E0,3.424578552E0,5.726892933E0
1.606123588E1,6.721023560E-2,3.897295532E0,3.033142548E0,4.938965822E0
1.607129287E1,1.425186310E0,3.826193390E0,2.344574432E0,4.708284310E0
1.608134987E1,2.414778442E0,3.644471283E0,1.830842743E0,4.739758539E0
1.609140687E1,2.942281494E0,3.040926361E0,5.730084229E-1,4.269963955E0
1.610146387E1,2.950813751E0,2.052980804E0,-5.370831299E-1,3.634623814E0
1.611152088E1,3.009940796E0,9.794132996E-1,-7.812254333E-1,3.260261828E0
1.612157787E1,2.915636902E0,2.386038208E-1,-1.143921204E0,3.141086762E0
1.613163487E1,2.957699432E0,-1.333726501E-1,-1.543141022E0,3.338721074E0
1.614169187E1,2.978955231E0,-2.381547546E-1,-1.463356934E0,3.327507396E0
1.615174887E1,2.815345459E0,-1.987866211E-1,-1.453327789E0,3.174562621E0
1.616180588E1,2.016157379E0,3.941304016E-1,-1.413360901E0,2.493555371E0
1.617186287E1,1.238524475E0,1.107097778E0,-1.869163055E0,2.500675687E0
1.618191987E1,1.179696808E0,1.481918335E0,-2.924318848E0,3.484165213E0
1.619197687E1,1.571132813E0,1.881287842E0,-4.246070251E0,4.902735444E0
1.620203387E1,1.645827484E0,3.069965973E0,-5.626649323E0,6.617599397E0
1.621209088E1,1.451381836E0,5.204078064E0,-7.680228882E0,9.390146613E0
1.622214787E1,8.804690552E-1,9.017398224E0,-1.010503647E1,1.357204695E1
1.623220487E1,-3.893403625E-1,1.623419083E1,-1.053359528E1,1.935606280E1
1.624226187E1,-1.754800873E0,2.623414581E1,-1.119626724E1,2.857737099E1
1.625231887E1,-3.277434540E0,3.484603729E1,-1.606354568E1,3.851006871E1
1.626237587E1,-4.653822327E0,3.593861526E1,-1.707648926E1,4.006056184E1
1.627243288E1,-4.084406433E0,2.472348724E1,-9.748028870E0,2.688786463E1
1.628248987E1,-5.554798737E0,1.354428452E1,-3.202141113E0,1.498523072E1
1.629254687E1,-8.066425781E0,5.781577148E0,-1.811532898E0,1.008838494E1
1.630260387E1,-6.415508881E0,1.224004669E0,-5.834866333E0,8.758002441E0
1.631266087E1,-1.310973816E0,3.198847961E-1,-1.049931656E1,1.058568027E1
1.632271788E1,-1.275347900E-1,2.146236877E0,-1.012464569E1,1.035041295E1
1.633277487E1,-7.529342651E-1,6.263724518E0,-7.024891663E0,9.441941417E0
1.634283187E1,6.156697083E-1,1.071441925E1,1.484912109E-1,1.073312064E1
1.635288887E1,1.549877014E0,1.558873306E1,1.084419937E1,1.905275249E1
1.636294587E1,4.724176025E-1,1.943019470E1,1.186971680E1,2.277379682E1
1.637300288E1,8.580157471E-1,2.060989151E1,5.632487183E0,2.138290745E1
1.638305975E1,2.680326233E0,1.748334320E1,1.307680664E0,1.773588078E1
1.639311675E1,5.886059875E0,1.482217712E1,-8.022866364E0,1.785242337E1
1.640317375E1,1.125988495E1,1.052566177E1,-1.237940689E1,1.976927616E1
1.641323075E1,1.045096710E1,6.273454285E0,-4.855453033E0,1.312076088E1
1.642328775E1,4.147275696E0,4.853357391E0,3.323538666E0,7.197283024E0
1.643334475E1,1.370699615E0,4.621788940E0,4.337230682E0,6.484698947E0
1.644340175E1,2.018702087E0,4.508324890E0,3.054398346E0,5.807710451E0
1.645345875E1,2.254611511E0,5.276976471E0,4.359534302E0,7.206614536E0
1.646351575E1,1.798809357E0,6.184988251E0,4.175716553E0,7.676353528E0
1.647357275E1,1.728904724E0,6.760242004E0,3.507655792E0,7.809842038E0
1.648362975E1,1.927242279E0,7.396568756E0,3.041824493E0,8.226553860E0
1.649368675E1,2.418221283E0,8.290809174E0,2.780467987E0,9.072833799E0
1.650374375E1,3.101101227E0,9.019194489E0,2.498753815E0,9.859334088E0
1.651380075E1,4.007017365E0,1.032058823E1,3.081042938E0,1.149189084E1
1.652385775E1,5.545667725E0,1.209080704E1,4.830754395E0,1.415196924E1
1.653391475E1,5.631738739E0,1.268641846E1,6.232888641E0,1.521547223E1
1.654397175E1,3.763174438E0,1.237671249E1,5.875431976E0,1.420792719E1
1.655402875E1,1.894610138E0,1.176553345E1,5.062173157E0,1.294769948E1
1.656408575E1,3.799099731E-1,1.026041336E1,3.642824707E0,1.089452091E1
1.657414275E1,-3.981719971E-1,8.660390625E0,2.060165863E0,8.910958989E0
1.658419975E1,-4.468208313E-1,7.781867523E0,1.315464478E0,7.904907197E0
1.659425675E1,-4.330494690E-1,7.643555145E0,1.232836304E0,7.754440821E0
1.660431375E1,-1.038390656E0,7.911797333E0,-1.233734436E0,8.074459291E0
1.661437075E1,-1.805695038E0,8.214168549E0,-5.340594177E0,9.962682655E0
1.662442775E1,-1.051712952E0,8.618328094E0,-4.149371338E0,9.622835433E0
1.663448475E1,7.813751221E-2,9.266330566E0,-9.407936096E-1,9.314294404E0
1.664454175E1,1.686991882E-1,9.459578705E0,1.260977783E0,9.544744819E0
1.665459875E1,-6.435118103E-1,8.961714020E0,1.922601929E0,9.188189365E0
1.666465575E1,-1.409169617E0,8.198600922E0,2.045646057E0,8.566649513E0
1.667471275E1,-1.913620605E0,7.455546112E0,2.035616913E0,7.961836966E0
1.668476975E1,-2.228116608E0,6.989265747E0,1.259031830E0,7.443084068E0
1.669482675E1,-1.513802032E0,7.307653656E0,2.245330811E-2,7.462834763E0
1.670488375E1,-9.056167603E-2,8.622669067E0,-8.662486267E-1,8.666545445E0
1.671494075E1,7.167095947E-1,9.738149414E0,-1.725012817E0,9.915689380E0
1.672499775E1,1.376387787E0,1.014021332E1,-2.766247559E0,1.060049504E1
1.673505475E1,1.094972992E0,1.023346939E1,-1.326092377E0,1.037696404E1
1.674511175E1,-5.164260864E-2,1.007973907E1,1.964365082E0,1.026949546E1
1.675516875E1,-1.018332367E0,1.035995636E1,2.287543030E0,1.065826204E1
1.676522575E1,-6.625222778E-1,1.144025986E1,3.106040955E-1,1.146363626E1
1.677528275E1,8.382568359E-3,1.247311203E1,-4.376898193E-1,1.248079190E1
1.678533975E1,3.495231628E-1,1.253628067E1,3.772155762E-1,1.254682394E1
1.679539675E1,1.824705505E-1,1.176119247E1,1.494043121E0,1.185711216E1
1.680545375E1,-1.075363770E0,1.156899216E1,1.930834808E0,1.177820486E1
1.681551075E1,-2.511327667E0,1.215711914E1,1.161135406E0,1.246798091E1
1.682556775E1,-2.350861359E0,1.254556137E1,3.902384949E-1,1.276988431E1
1.683562475E1,-2.247276764E0,1.269584885E1,4.436773682E-1,1.290084030E1
1.684568175E1,-2.389181671E0,1.289253983E1,2.764750671E-1,1.311496133E1
1.685573875E1,-2.131118317E0,1.336375992E1,1.044827271E0,1.357289241E1
1.686579575E1,-3.129991150E-1,1.379456406E1,1.699416046E0,1.390237321E1
1.687585275E1,1.939067688E0,1.440768906E1,9.373507690E-1,1.456777656E1
